File: XRD_Data/standards/MAPbCl3.txt
5	0
5.04	0
5.08	0
5.12	0
5.16	0
5.2	0
5.24	0
5.28	0
5.32	0
5.36	0
5.4	0
5.44	0
5.48	0
5.52	0
5.56	0
5.6	0
5.64	0
5.68	0
5.72	0
5.76	0
5.8	0
5.84	0
5.88	0
5.92	0
5.96	0
6	0
6.04	0
6.08	0
6.12	0
6.16	0
6.2	0
6.24	0
6.28	0
6.32	0
6.36	0
6.4	0
6.44	0
6.48	0
6.52	0
6.56	0
6.6	0
6.64	0
6.68	0
6.72	0
6.76	0
6.8	0
6.84	0
6.88	0
6.92	0
6.96	0
7	0
7.04	0
7.08	0
7.12	0
7.16	0
7.2	0
7.24	0
7.28	0
7.32	0
7.36	0
7.4	0
7.44	0
7.48	0
7.52	0
7.56	0
7.6	0
7.64	0
7.68	0
7.72	0
7.76	0
7.8	0
7.84	0
7.88	0
7.92	0
7.96	0
8	0
8.04	0
8.08	0
8.12	0
8.16	0
8.2	0
8.24	0
8.28	0
8.32	0
8.36	0
8.4	0
8.44	0
8.48	0
8.52	0
8.56	0
8.6	0
8.64	0
8.68	0
8.72	0
8.76	0
8.8	0
8.84	0
8.88	0
8.92	0
8.96	0
9	0
9.04	0
9.08	0
9.12	0
9.16	0
9.2	0
9.24	0
9.28	0
9.32	0
9.36	0
9.4	0
9.44	0
9.48	0
9.52	0
9.56	0
9.6	0
9.64	0
9.68	0
9.72	0
9.76	0
9.8	0
9.84	0
9.88	0
9.92	0
9.96	0
10	0
10.04	0
10.08	0
10.12	0
10.16	0
10.2	0
10.24	0
10.28	0
10.32	0
10.36	0
10.4	0
10.44	0
10.48	0
10.52	0
10.56	0
10.6	0
10.64	0
10.68	0
10.72	0
10.76	0
10.8	0
10.84	0
10.88	0
10.92	0
10.96	0
11	0
11.04	0
11.08	0
11.12	0
11.16	0
11.2	0
11.24	0
11.28	0
11.32	0
11.36	0
11.4	0
11.44	0
11.48	0
11.52	0
11.56	0
11.6	0
11.64	0
11.68	0
11.72	0
11.76	0
11.8	0
11.84	0
11.88	0
11.92	0
11.96	0
12	0
12.04	0
12.08	0
12.12	0
12.16	0
12.2	0
12.24	0
12.28	0
12.32	0
12.36	0
12.4	0
12.44	0
12.48	0
12.52	0
12.56	0
12.6	0
12.64	0
12.68	0
12.72	0
12.76	0
12.8	0
12.84	0
12.88	0
12.92	0
12.96	0
13	0
13.04	0
13.08	0
13.12	0
13.16	0
13.2	0
13.24	0
13.28	0
13.32	0
13.36	0
13.4	0
13.44	0
13.48	0
13.52	0
13.56	0
13.6	0
13.64	0
13.68	0
13.72	0
13.76	0
13.8	0
13.84	0
13.88	0
13.92	0
13.96	0
14	0
14.04	9.84533
14.08	10.4092
14.12	11.0229
14.16	11.6926
14.2	12.4251
14.24	13.2286
14.28	14.1126
14.32	15.0883
14.36	16.1686
14.4	17.3692
14.44	18.7086
14.48	20.2089
14.52	21.897
14.56	23.8056
14.6	25.9749
14.64	28.4543
14.68	31.306
14.72	34.6082
14.76	38.461
14.8	42.9936
14.84	48.3756
14.88	54.8327
14.92	62.6709
14.96	72.3125
15	84.3544
15.04	99.6608
15.08	119.521
15.12	145.926
15.16	182.075
15.2	233.366
15.24	309.465
15.28	428.997
15.32	631.641
15.36	1020.96
15.4	1962.62
15.44	4558.42
15.48	9330.13
15.52	8125.87
15.56	3629.23
15.6	1618.66
15.64	889.368
15.68	566.869
15.72	391.927
15.76	286.375
15.8	218.067
15.84	171.439
15.88	138.244
15.92	113.797
15.96	95.2836
16	80.9337
16.04	69.5895
16.08	60.4683
16.12	53.0263
16.16	46.8758
16.2	41.7349
16.24	37.3944
16.28	33.6967
16.32	30.5208
16.36	27.7732
16.4	25.3803
16.44	23.2835
16.48	21.4361
16.52	19.7999
16.56	18.344
16.6	17.0429
16.64	15.8754
16.68	14.8238
16.72	13.8733
16.76	13.0113
16.8	12.2272
16.84	11.5118
16.88	10.8574
16.92	10.2573
16.96	0
17	0
17.04	0
17.08	0
17.12	0
17.16	0
17.2	0
17.24	0
17.28	0
17.32	0
17.36	0
17.4	0
17.44	0
17.48	0
17.52	0
17.56	0
17.6	0
17.64	0
17.68	0
17.72	0
17.76	0
17.8	0
17.84	0
17.88	0
17.92	0
17.96	0
18	0
18.04	0
18.08	0
18.12	0
18.16	0
18.2	0
18.24	0
18.28	0
18.32	0
18.36	0
18.4	0
18.44	0
18.48	0
18.52	0
18.56	0
18.6	0
18.64	0
18.68	0
18.72	0
18.76	0
18.8	0
18.84	0
18.88	0
18.92	0
18.96	0
19	0
19.04	0
19.08	0
19.12	0
19.16	0
19.2	0
19.24	0
19.28	0
19.32	0
19.36	0
19.4	0
19.44	0
19.48	0
19.52	0
19.56	0
19.6	0
19.64	0
19.68	0
19.72	0
19.76	0
19.8	0
19.84	0
19.88	0
19.92	0
19.96	0
20	0
20.04	0
20.08	0
20.12	0
20.16	0
20.2	0
20.24	0
20.28	0
20.32	0
20.36	0
20.4	0
20.44	0
20.48	0
20.52	0
20.56	6.4919
20.6	6.87299
20.64	7.28863
20.68	7.74312
20.72	8.24146
20.76	8.78948
20.8	9.39401
20.84	10.0631
20.88	10.8062
20.92	11.6347
20.96	12.5622
21	13.6051
21.04	14.7833
21.08	16.1213
21.12	17.6493
21.16	19.405
21.2	21.4359
21.24	23.8027
21.28	26.5835
21.32	29.8806
21.36	33.83
21.4	38.6151
21.44	44.489
21.48	51.8075
21.52	61.084
21.56	73.0809
21.6	88.9686
21.64	110.616
21.68	141.153
21.72	186.127
21.76	256.102
21.8	373.172
21.84	592.62
21.88	1103.42
21.92	2516.97
21.96	5458.81
22	5569.12
22.04	2600.99
22.08	1134.44
22.12	604.493
22.16	379.023
22.2	259.453
22.24	188.215
22.28	142.536
22.32	111.578
22.36	89.6634
22.4	73.5987
22.44	61.4799
22.48	52.1169
22.52	44.7353
22.56	38.8144
22.6	33.9934
22.64	30.0163
22.68	26.6974
22.72	23.8992
22.76	21.5184
22.8	19.476
22.84	17.7109
22.88	16.1751
22.92	14.8305
22.96	13.6468
23	12.5992
23.04	11.6677
23.08	10.8357
23.12	10.0896
23.16	9.41793
23.2	8.81114
23.24	8.26112
23.28	7.76102
23.32	7.30498
23.36	6.88796
23.4	6.50565
23.44	0
23.48	0
23.52	0
23.56	0
23.6	0
23.64	0
23.68	0
23.72	0
23.76	0
23.8	0
23.84	0
23.88	0
23.92	0
23.96	0
24	0
24.04	0
24.08	0
24.12	0
24.16	0
24.2	0
24.24	0
24.28	0
24.32	0
24.36	0
24.4	0
24.44	0
24.48	0
24.52	0
24.56	0
24.6	0
24.64	0
24.68	0
24.72	0
24.76	0
24.8	0
24.84	0
24.88	0
24.92	0
24.96	0
25	0
25.04	0
25.08	0
25.12	0
25.16	0
25.2	0
25.24	0
25.28	0
25.32	0
25.36	0
25.4	0
25.44	0
25.48	0
25.52	0
25.56	0.632505
25.6	0.668978
25.64	0.708698
25.68	0.752061
25.72	0.799527
25.76	0.851631
25.8	0.908996
25.84	0.972354
25.88	1.04257
25.92	1.12067
25.96	1.20788
26	1.30567
26.04	1.41582
26.08	1.54052
26.12	1.68241
26.16	1.84484
26.2	2.03194
26.24	2.24897
26.28	2.50266
26.32	2.80174
26.36	3.15771
26.4	3.58591
26.44	4.10725
26.48	4.75074
26.52	5.55758
26.56	6.58786
26.6	7.93189
26.64	9.73034
26.68	12.2117
26.72	15.7668
26.76	21.1061
26.8	29.6271
26.84	44.4083
26.88	74.1108
26.92	150.129
26.96	353.698
27	633.916
27.04	437.064
27.08	187.484
27.12	87.408
27.16	50.1966
27.2	32.7418
27.24	22.9733
27.28	16.9688
27.32	13.0287
27.36	10.3098
27.4	8.35736
27.44	6.90922
27.48	5.8061
27.52	4.94683
27.56	4.26464
27.6	3.71414
27.64	3.26354
27.68	2.89009
27.72	2.57717
27.76	2.31238
27.8	2.08635
27.84	1.89188
27.88	1.72335
27.92	1.57636
27.96	1.44739
28	1.33361
28.04	1.23273
28.08	1.14287
28.12	1.06248
28.16	0.990276
28.2	0.925189
28.24	0.86631
28.28	0.812876
28.32	0.764234
28.36	0.71983
28.4	0.679185
28.44	0.641886
28.48	0
28.52	0
28.56	0
28.6	0
28.64	0
28.68	0
28.72	0
28.76	0
28.8	0
28.84	0
28.88	0
28.92	0
28.96	0
29	0
29.04	0
29.08	0
29.12	0
29.16	0
29.2	0
29.24	0
29.28	0
29.32	0
29.36	0
29.4	0
29.44	0
29.48	0
29.52	0
29.56	0
29.6	0
29.64	0
29.68	0
29.72	0
29.76	0
29.8	0
29.84	3.54436
29.88	3.74919
29.92	3.97229
29.96	4.2159
30	4.48262
30.04	4.77546
30.08	5.09794
30.12	5.4542
30.16	5.84914
30.2	6.28854
30.24	6.77934
30.28	7.32987
30.32	7.95022
30.36	8.65271
30.4	9.45249
30.44	10.3684
30.48	11.4239
30.52	12.649
30.56	14.0819
30.6	15.7723
30.64	17.7858
30.68	20.2099
30.72	23.1641
30.76	26.8146
30.8	31.3975
30.84	37.2584
30.88	44.9176
30.92	55.1879
30.96	69.3946
31	89.8129
31.04	120.603
31.08	170.002
31.12	256.375
31.16	432.711
31.2	891.255
31.24	2100.12
31.28	3568.1
31.32	2302.17
31.36	981.349
31.4	464.754
31.44	270.339
31.48	177.522
31.52	125.113
31.56	92.7162
31.6	71.368
31.64	56.5878
31.68	45.9455
31.72	38.0348
31.76	31.998
31.8	27.2884
31.84	23.5444
31.88	20.5197
31.92	18.0415
31.96	15.9858
32	14.2619
32.04	12.8022
32.08	11.5554
32.12	10.482
32.16	9.55142
32.2	8.73934
32.24	8.0265
32.28	7.39738
32.32	6.83938
32.36	6.34217
32.4	5.89724
32.44	5.49751
32.48	5.13707
32.52	4.81093
32.56	4.51487
32.6	4.24532
32.64	3.99919
32.68	3.77385
32.72	3.56703
32.76	0
32.8	0
32.84	0
32.88	0
32.92	0
32.96	0
33	0
33.04	0
33.08	0
33.12	0
33.16	0
33.2	0
33.24	0
33.28	0
33.32	0
33.36	0
33.4	0
33.44	0
33.48	0
33.52	0
33.56	0
33.6	0
33.64	5.48485
33.68	5.80061
33.72	6.14443
33.76	6.51973
33.8	6.93048
33.84	7.38128
33.88	7.87752
33.92	8.4255
33.96	9.03267
34	9.70787
34.04	10.4616
34.08	11.3067
34.12	12.2583
34.16	13.3351
34.2	14.5602
34.24	15.962
34.28	17.5762
34.32	19.4478
34.36	21.6345
34.4	24.2112
34.44	27.2762
34.48	30.9608
34.52	35.4435
34.56	40.9718
34.6	47.8969
34.64	56.7298
34.68	68.2374
34.72	83.6112
34.76	104.782
34.8	135.041
34.84	180.35
34.88	252.372
34.92	376.583
34.96	623.306
35	1246.64
35.04	2932.24
35.08	5453.94
35.12	3967.21
35.16	1713.34
35.2	789.628
35.24	448.873
35.28	291.237
35.32	203.641
35.36	150.031
35.4	114.968
35.44	90.8358
35.48	73.5414
35.52	60.7357
35.56	50.9948
35.6	43.416
35.64	37.4052
35.68	32.5589
35.72	28.5952
35.76	25.3124
35.8	22.5632
35.84	20.2382
35.88	18.2544
35.92	16.5483
35.96	15.0705
36	13.7819
36.04	12.6517
36.08	11.6549
36.12	10.7713
36.16	9.98448
36.2	9.28076
36.24	8.64886
36.28	8.07933
36.32	7.56422
36.36	7.09683
36.4	6.67144
36.44	6.28316
36.48	5.92781
36.52	5.60176
36.56	0
36.6	0
36.64	0
36.68	0
36.72	0
36.76	0
36.8	0
36.84	0
36.88	0
36.92	0
36.96	0
37	0
37.04	0
37.08	0
37.12	2.89594
37.16	3.06328
37.2	3.24554
37.24	3.44455
37.28	3.66244
37.32	3.90167
37.36	4.16511
37.4	4.45614
37.44	4.77875
37.48	5.13769
37.52	5.5386
37.56	5.98829
37.6	6.49501
37.64	7.06881
37.68	7.72205
37.72	8.4701
37.76	9.3322
37.8	10.3327
37.84	11.503
37.88	12.8835
37.92	14.5277
37.96	16.5072
38	18.9194
38.04	21.8999
38.08	25.6415
38.12	30.426
38.16	36.6779
38.2	45.0602
38.24	56.6535
38.28	73.3127
38.32	98.4285
38.36	138.711
38.4	209.111
38.44	352.704
38.48	725.775
38.52	1710.28
38.56	2915.13
38.6	1887.82
38.64	804.953
38.68	380.866
38.72	221.384
38.76	145.319
38.8	102.391
38.84	75.8641
38.88	58.3878
38.92	46.2905
38.96	37.5813
39	31.1084
39.04	26.1692
39.08	22.3163
39.12	19.2536
39.16	16.7794
39.2	14.7524
39.24	13.0711
39.28	11.6612
39.32	10.4674
39.36	9.44777
39.4	8.57
39.44	7.80899
39.48	7.14494
39.52	6.56205
39.56	6.04763
39.6	5.59136
39.64	5.18482
39.68	4.82103
39.72	4.4942
39.76	4.1995
39.8	3.93284
39.84	3.69079
39.88	3.47041
39.92	3.26918
39.96	3.08495
40	2.91587
40.04	0
40.08	0
40.12	0
40.16	0
40.2	0
40.24	0
40.28	0
40.32	0
40.36	0
40.4	0
40.44	0
40.48	0
40.52	0
40.56	0
40.6	0
40.64	0
40.68	0
40.72	0
40.76	0
40.8	0
40.84	0
40.88	0
40.92	0
40.96	0
41	0
41.04	0
41.08	0
41.12	0
41.16	0
41.2	0
41.24	0
41.28	0
41.32	0
41.36	0
41.4	0
41.44	0
41.48	0
41.52	0
41.56	0
41.6	0
41.64	0
41.68	0
41.72	0
41.76	0
41.8	0
41.84	0
41.88	0
41.92	0
41.96	0
42	0
42.04	0
42.08	0
42.12	0
42.16	0
42.2	0
42.24	0
42.28	0
42.32	0
42.36	0
42.4	0
42.44	0
42.48	0
42.52	0
42.56	0
42.6	0
42.64	0
42.68	0
42.72	0
42.76	0
42.8	0
42.84	0
42.88	0
42.92	0
42.96	0
43	0
43.04	0
43.08	0
43.12	0
43.16	0
43.2	0
43.24	0
43.28	0
43.32	0
43.36	1.85109
43.4	1.95619
43.44	2.0705
43.48	2.19512
43.52	2.33134
43.56	2.48063
43.6	2.64473
43.64	2.82566
43.68	3.0258
43.72	3.24797
43.76	3.49551
43.8	3.77244
43.84	4.08361
43.88	4.43489
43.92	4.83347
43.96	5.28824
44	5.81026
44.04	6.41346
44.08	7.11556
44.12	7.93937
44.16	8.91469
44.2	10.081
44.24	11.4915
44.28	13.2191
44.32	15.3664
44.36	18.0804
44.4	21.5785
44.44	26.1926
44.48	32.4494
44.52	41.2234
44.56	54.0503
44.6	73.8183
44.64	106.464
44.68	166.269
44.72	299.985
44.76	667.525
44.8	1509.91
44.84	1815.25
44.88	905.604
44.92	388.306
44.96	200.045
45	123.072
45.04	83.3195
45.08	59.9673
45.12	45.1432
45.16	35.1741
45.2	28.1606
45.24	23.0449
45.28	19.2016
45.32	16.2426
45.36	13.9166
45.4	12.0556
45.44	10.5437
45.48	9.29882
45.52	8.26174
45.56	7.38872
45.6	6.64693
45.64	6.01135
45.68	5.46267
45.72	4.98575
45.76	4.56861
45.8	4.20167
45.84	3.87719
45.88	3.58887
45.92	3.33154
45.96	3.1009
46	2.8934
46.04	2.70604
46.08	2.53629
46.12	2.38203
46.16	2.24141
46.2	2.11289
46.24	4.43467
46.28	4.46476
46.32	2.72826
46.36	2.8922
46.4	3.07137
46.44	3.2677
46.48	3.48347
46.52	3.72133
46.56	3.98439
46.6	4.27634
46.64	4.60157
46.68	4.96534
46.72	5.37397
46.76	5.83515
46.8	6.35827
46.84	6.95495
46.88	7.63963
46.92	8.43048
46.96	9.35059
47	10.4297
47.04	11.7066
47.08	13.2327
47.12	15.077
47.16	17.3344
47.2	20.1376
47.24	23.6771
47.28	28.2338
47.32	34.2361
47.36	42.3614
47.4	53.7324
47.44	70.3131
47.48	95.7821
47.52	137.656
47.56	213.79
47.6	381.635
47.64	840.747
47.68	1922.71
47.72	2445.78
47.76	1255.74
47.8	536.15
47.84	272.839
47.88	166.641
47.92	112.353
47.96	80.6294
48	60.5652
48.04	47.1102
48.08	37.6656
48.12	30.7891
48.16	25.6308
48.2	21.6642
48.24	18.5496
48.28	16.0599
48.32	14.0388
48.36	12.3758
48.4	10.9913
48.44	9.82646
48.48	8.83718
48.52	7.98994
48.56	7.25882
48.6	6.62355
48.64	6.06809
48.68	5.57963
48.72	5.14781
48.76	4.76421
48.8	4.42192
48.84	4.11521
48.88	3.83932
48.92	3.59026
48.96	3.36466
49	3.15966
49.04	2.97284
49.08	2.8021
49.12	2.64565
49.16	2.50194
49.2	0
49.24	0
49.28	0
49.32	0
49.36	0
49.4	0
49.44	0
49.48	0
49.52	0
49.56	0
49.6	0
49.64	0
49.68	0
49.72	0
49.76	0
49.8	0
49.84	0
49.88	0
49.92	0
49.96	0
50	0