File: XRD_Data/standards/MAPbI3.txt
0.0000	0.0000e+00
0.0550	0.0000e+00
0.1100	0.0000e+00
0.1650	0.0000e+00
0.2200	0.0000e+00
0.2750	0.0000e+00
0.3300	0.0000e+00
0.3850	0.0000e+00
0.4400	0.0000e+00
0.4950	0.0000e+00
0.5500	0.0000e+00
0.6050	0.0000e+00
0.6600	0.0000e+00
0.7150	0.0000e+00
0.7700	0.0000e+00
0.8250	0.0000e+00
0.8800	0.0000e+00
0.9350	0.0000e+00
0.9900	0.0000e+00
1.0450	0.0000e+00
1.1000	0.0000e+00
1.1550	0.0000e+00
1.2100	0.0000e+00
1.2650	0.0000e+00
1.3200	0.0000e+00
1.3750	0.0000e+00
1.4300	0.0000e+00
1.4850	0.0000e+00
1.5400	0.0000e+00
1.5950	0.0000e+00
1.6500	0.0000e+00
1.7050	0.0000e+00
1.7600	0.0000e+00
1.8150	0.0000e+00
1.8700	0.0000e+00
1.9250	0.0000e+00
1.9800	0.0000e+00
2.0350	0.0000e+00
2.0900	0.0000e+00
2.1450	0.0000e+00
2.2000	0.0000e+00
2.2550	0.0000e+00
2.3100	0.0000e+00
2.3650	0.0000e+00
2.4200	0.0000e+00
2.4750	0.0000e+00
2.5300	0.0000e+00
2.5850	0.0000e+00
2.6400	0.0000e+00
2.6950	0.0000e+00
2.7500	0.0000e+00
2.8050	0.0000e+00
2.8600	0.0000e+00
2.9150	0.0000e+00
2.9700	0.0000e+00
3.0250	0.0000e+00
3.0800	0.0000e+00
3.1350	0.0000e+00
3.1900	0.0000e+00
3.2450	0.0000e+00
3.3000	0.0000e+00
3.3550	0.0000e+00
3.4100	0.0000e+00
3.4650	0.0000e+00
3.5200	0.0000e+00
3.5750	0.0000e+00
3.6300	0.0000e+00
3.6850	0.0000e+00
3.7400	0.0000e+00
3.7950	0.0000e+00
3.8500	0.0000e+00
3.9050	0.0000e+00
3.9600	0.0000e+00
4.0150	0.0000e+00
4.0700	0.0000e+00
4.1250	0.0000e+00
4.1800	0.0000e+00
4.2350	0.0000e+00
4.2900	0.0000e+00
4.3450	0.0000e+00
4.4000	0.0000e+00
4.4550	0.0000e+00
4.5100	0.0000e+00
4.5650	0.0000e+00
4.6200	0.0000e+00
4.6750	0.0000e+00
4.7300	0.0000e+00
4.7850	0.0000e+00
4.8400	0.0000e+00
4.8950	0.0000e+00
4.9500	0.0000e+00
5.0050	0.0000e+00
5.0600	0.0000e+00
5.1150	0.0000e+00
5.1700	0.0000e+00
5.2250	0.0000e+00
5.2800	0.0000e+00
5.3350	0.0000e+00
5.3900	0.0000e+00
5.4450	0.0000e+00
5.5000	0.0000e+00
5.5550	0.0000e+00
5.6100	0.0000e+00
5.6650	0.0000e+00
5.7200	0.0000e+00
5.7750	0.0000e+00
5.8300	0.0000e+00
5.8850	0.0000e+00
5.9400	0.0000e+00
5.9950	0.0000e+00
6.0500	0.0000e+00
6.1050	0.0000e+00
6.1600	0.0000e+00
6.2150	0.0000e+00
6.2700	0.0000e+00
6.3250	0.0000e+00
6.3800	0.0000e+00
6.4350	0.0000e+00
6.4900	0.0000e+00
6.5450	0.0000e+00
6.6000	0.0000e+00
6.6550	0.0000e+00
6.7100	0.0000e+00
6.7650	0.0000e+00
6.8200	0.0000e+00
6.8750	0.0000e+00
6.9300	0.0000e+00
6.9850	0.0000e+00
7.0400	0.0000e+00
7.0950	0.0000e+00
7.1500	0.0000e+00
7.2050	0.0000e+00
7.2600	0.0000e+00
7.3150	0.0000e+00
7.3700	0.0000e+00
7.4250	0.0000e+00
7.4800	0.0000e+00
7.5350	0.0000e+00
7.5900	0.0000e+00
7.6450	0.0000e+00
7.7000	0.0000e+00
7.7550	0.0000e+00
7.8100	0.0000e+00
7.8650	0.0000e+00
7.9200	0.0000e+00
7.9750	0.0000e+00
8.0300	0.0000e+00
8.0850	0.0000e+00
8.1400	0.0000e+00
8.1950	0.0000e+00
8.2500	0.0000e+00
8.3050	0.0000e+00
8.3600	0.0000e+00
8.4150	0.0000e+00
8.4700	0.0000e+00
8.5250	0.0000e+00
8.5800	0.0000e+00
8.6350	0.0000e+00
8.6900	0.0000e+00
8.7450	0.0000e+00
8.8000	0.0000e+00
8.8550	0.0000e+00
8.9100	0.0000e+00
8.9650	0.0000e+00
9.0200	0.0000e+00
9.0750	0.0000e+00
9.1300	0.0000e+00
9.1850	0.0000e+00
9.2400	0.0000e+00
9.2950	0.0000e+00
9.3500	0.0000e+00
9.4050	0.0000e+00
9.4600	0.0000e+00
9.5150	0.0000e+00
9.5700	0.0000e+00
9.6250	0.0000e+00
9.6800	0.0000e+00
9.7350	0.0000e+00
9.7900	0.0000e+00
9.8450	0.0000e+00
9.9000	0.0000e+00
9.9550	0.0000e+00
10.0100	0.0000e+00
10.0650	0.0000e+00
10.1200	0.0000e+00
10.1750	0.0000e+00
10.2300	0.0000e+00
10.2850	0.0000e+00
10.3400	0.0000e+00
10.3950	0.0000e+00
10.4500	0.0000e+00
10.5050	0.0000e+00
10.5600	0.0000e+00
10.6150	0.0000e+00
10.6700	0.0000e+00
10.7250	0.0000e+00
10.7800	0.0000e+00
10.8350	0.0000e+00
10.8900	0.0000e+00
10.9450	0.0000e+00
11.0000	0.0000e+00
11.0550	0.0000e+00
11.1100	0.0000e+00
11.1650	0.0000e+00
11.2200	0.0000e+00
11.2750	0.0000e+00
11.3300	0.0000e+00
11.3850	0.0000e+00
11.4400	0.0000e+00
11.4950	0.0000e+00
11.5500	0.0000e+00
11.6050	0.0000e+00
11.6600	0.0000e+00
11.7150	0.0000e+00
11.7700	0.0000e+00
11.8250	0.0000e+00
11.8800	0.0000e+00
11.9350	0.0000e+00
11.9900	0.0000e+00
12.0450	0.0000e+00
12.1000	0.0000e+00
12.1550	0.0000e+00
12.2100	0.0000e+00
12.2650	0.0000e+00
12.3200	0.0000e+00
12.3750	0.0000e+00
12.4300	0.0000e+00
12.4850	0.0000e+00
12.5400	0.0000e+00
12.5950	0.0000e+00
12.6500	0.0000e+00
12.7050	0.0000e+00
12.7600	0.0000e+00
12.8150	0.0000e+00
12.8700	0.0000e+00
12.9250	0.0000e+00
12.9800	0.0000e+00
13.0350	0.0000e+00
13.0900	0.0000e+00
13.1450	0.0000e+00
13.2000	0.0000e+00
13.2550	0.0000e+00
13.3100	0.0000e+00
13.3650	0.0000e+00
13.4200	0.0000e+00
13.4750	0.0000e+00
13.5300	0.0000e+00
13.5850	0.0000e+00
13.6400	0.0000e+00
13.6950	2.6282e-05
13.7500	1.9925e-02
13.8050	2.8226e+00
13.8600	7.4716e+01
13.9150	3.6956e+02
13.9700	3.4159e+02
14.0250	6.5065e+01
14.0800	1.5222e+02
14.1350	6.9431e+02
14.1900	5.9922e+02
14.2450	9.6634e+01
14.3000	2.9120e+00
14.3550	1.6396e-02
14.4100	0.0000e+00
14.4650	0.0000e+00
14.5200	0.0000e+00
14.5750	0.0000e+00
14.6300	0.0000e+00
14.6850	0.0000e+00
14.7400	0.0000e+00
14.7950	0.0000e+00
14.8500	0.0000e+00
14.9050	0.0000e+00
14.9600	0.0000e+00
15.0150	0.0000e+00
15.0700	0.0000e+00
15.1250	0.0000e+00
15.1800	0.0000e+00
15.2350	0.0000e+00
15.2900	0.0000e+00
15.3450	0.0000e+00
15.4000	0.0000e+00
15.4550	0.0000e+00
15.5100	0.0000e+00
15.5650	0.0000e+00
15.6200	0.0000e+00
15.6750	0.0000e+00
15.7300	0.0000e+00
15.7850	0.0000e+00
15.8400	0.0000e+00
15.8950	0.0000e+00
15.9500	0.0000e+00
16.0050	0.0000e+00
16.0600	0.0000e+00
16.1150	0.0000e+00
16.1700	0.0000e+00
16.2250	0.0000e+00
16.2800	0.0000e+00
16.3350	0.0000e+00
16.3900	0.0000e+00
16.4450	0.0000e+00
16.5000	0.0000e+00
16.5550	0.0000e+00
16.6100	0.0000e+00
16.6650	0.0000e+00
16.7200	0.0000e+00
16.7750	0.0000e+00
16.8300	0.0000e+00
16.8850	0.0000e+00
16.9400	0.0000e+00
16.9950	0.0000e+00
17.0500	0.0000e+00
17.1050	0.0000e+00
17.1600	0.0000e+00
17.2150	0.0000e+00
17.2700	0.0000e+00
17.3250	0.0000e+00
17.3800	0.0000e+00
17.4350	0.0000e+00
17.4900	0.0000e+00
17.5450	0.0000e+00
17.6000	0.0000e+00
17.6550	0.0000e+00
17.7100	0.0000e+00
17.7650	0.0000e+00
17.8200	0.0000e+00
17.8750	0.0000e+00
17.9300	0.0000e+00
17.9850	0.0000e+00
18.0400	0.0000e+00
18.0950	0.0000e+00
18.1500	0.0000e+00
18.2050	0.0000e+00
18.2600	0.0000e+00
18.3150	0.0000e+00
18.3700	0.0000e+00
18.4250	0.0000e+00
18.4800	0.0000e+00
18.5350	0.0000e+00
18.5900	0.0000e+00
18.6450	0.0000e+00
18.7000	0.0000e+00
18.7550	0.0000e+00
18.8100	0.0000e+00
18.8650	0.0000e+00
18.9200	0.0000e+00
18.9750	0.0000e+00
19.0300	0.0000e+00
19.0850	0.0000e+00
19.1400	0.0000e+00
19.1950	0.0000e+00
19.2500	0.0000e+00
19.3050	0.0000e+00
19.3600	0.0000e+00
19.4150	0.0000e+00
19.4700	0.0000e+00
19.5250	0.0000e+00
19.5800	0.0000e+00
19.6350	0.0000e+00
19.6900	3.5156e-05
19.7450	1.6403e-02
19.8000	1.4301e+00
19.8550	2.3298e+01
19.9100	7.0971e+01
19.9650	4.3557e+01
20.0200	4.2438e+01
20.0750	8.4598e+01
20.1300	3.4983e+01
20.1850	2.7057e+00
20.2400	3.9105e-02
20.2950	1.0560e-04
20.3500	0.0000e+00
20.4050	0.0000e+00
20.4600	0.0000e+00
20.5150	0.0000e+00
20.5700	0.0000e+00
20.6250	0.0000e+00
20.6800	0.0000e+00
20.7350	0.0000e+00
20.7900	0.0000e+00
20.8450	0.0000e+00
20.9000	0.0000e+00
20.9550	0.0000e+00
21.0100	0.0000e+00
21.0650	0.0000e+00
21.1200	0.0000e+00
21.1750	0.0000e+00
21.2300	0.0000e+00
21.2850	0.0000e+00
21.3400	0.0000e+00
21.3950	0.0000e+00
21.4500	0.0000e+00
21.5050	0.0000e+00
21.5600	0.0000e+00
21.6150	0.0000e+00
21.6700	0.0000e+00
21.7250	0.0000e+00
21.7800	0.0000e+00
21.8350	0.0000e+00
21.8900	0.0000e+00
21.9450	0.0000e+00
22.0000	0.0000e+00
22.0550	0.0000e+00
22.1100	0.0000e+00
22.1650	0.0000e+00
22.2200	0.0000e+00
22.2750	0.0000e+00
22.3300	0.0000e+00
22.3850	0.0000e+00
22.4400	0.0000e+00
22.4950	0.0000e+00
22.5500	0.0000e+00
22.6050	0.0000e+00
22.6600	0.0000e+00
22.7150	0.0000e+00
22.7700	0.0000e+00
22.8250	0.0000e+00
22.8800	0.0000e+00
22.9350	0.0000e+00
22.9900	0.0000e+00
23.0450	0.0000e+00
23.1000	0.0000e+00
23.1550	0.0000e+00
23.2100	0.0000e+00
23.2650	0.0000e+00
23.3200	7.3047e-05
23.3750	3.6508e-02
23.4300	3.4095e+00
23.4850	5.9496e+01
23.5400	1.9400e+02
23.5950	1.1820e+02
23.6500	1.3457e+01
23.7050	2.8627e-01
23.7600	1.1379e-03
23.8150	0.0000e+00
23.8700	0.0000e+00
23.9250	0.0000e+00
23.9800	0.0000e+00
24.0350	0.0000e+00
24.0900	0.0000e+00
24.1450	0.0000e+00
24.2000	0.0000e+00
24.2550	0.0000e+00
24.3100	4.2256e-04
24.3650	1.1762e-01
24.4200	6.1178e+00
24.4750	5.9458e+01
24.5300	1.0798e+02
24.5850	3.6641e+01
24.6400	2.3233e+00
24.6950	2.7526e-02
24.7500	6.0939e-05
24.8050	0.0000e+00
24.8600	0.0000e+00
24.9150	0.0000e+00
24.9700	0.0000e+00
25.0250	0.0000e+00
25.0800	0.0000e+00
25.1350	0.0000e+00
25.1900	0.0000e+00
25.2450	0.0000e+00
25.3000	0.0000e+00
25.3550	0.0000e+00
25.4100	0.0000e+00
25.4650	0.0000e+00
25.5200	0.0000e+00
25.5750	0.0000e+00
25.6300	0.0000e+00
25.6850	0.0000e+00
25.7400	0.0000e+00
25.7950	0.0000e+00
25.8500	0.0000e+00
25.9050	0.0000e+00
25.9600	0.0000e+00
26.0150	0.0000e+00
26.0700	0.0000e+00
26.1250	0.0000e+00
26.1800	0.0000e+00
26.2350	0.0000e+00
26.2900	0.0000e+00
26.3450	0.0000e+00
26.4000	0.0000e+00
26.4550	0.0000e+00
26.5100	0.0000e+00
26.5650	0.0000e+00
26.6200	0.0000e+00
26.6750	0.0000e+00
26.7300	0.0000e+00
26.7850	0.0000e+00
26.8400	0.0000e+00
26.8950	0.0000e+00
26.9500	0.0000e+00
27.0050	0.0000e+00
27.0600	0.0000e+00
27.1150	0.0000e+00
27.1700	0.0000e+00
27.2250	0.0000e+00
27.2800	0.0000e+00
27.3350	0.0000e+00
27.3900	0.0000e+00
27.4450	0.0000e+00
27.5000	0.0000e+00
27.5550	0.0000e+00
27.6100	0.0000e+00
27.6650	0.0000e+00
27.7200	0.0000e+00
27.7750	0.0000e+00
27.8300	0.0000e+00
27.8850	2.3514e-03
27.9400	5.5481e-01
27.9950	2.4461e+01
28.0500	2.0151e+02
28.1050	3.1019e+02
28.1600	8.9224e+01
28.2150	4.7955e+00
28.2700	4.8161e-02
28.3250	1.8451e-03
28.3800	4.9385e-01
28.4350	2.5971e+01
28.4900	2.5520e+02
28.5450	4.6859e+02
28.6000	1.6077e+02
28.6550	1.0307e+01
28.7100	1.2347e-01
28.7650	2.7638e-04
28.8200	0.0000e+00
28.8750	0.0000e+00
28.9300	0.0000e+00
28.9850	0.0000e+00
29.0400	0.0000e+00
29.0950	0.0000e+00
29.1500	0.0000e+00
29.2050	0.0000e+00
29.2600	0.0000e+00
29.3150	0.0000e+00
29.3700	0.0000e+00
29.4250	0.0000e+00
29.4800	0.0000e+00
29.5350	0.0000e+00
29.5900	0.0000e+00
29.6450	0.0000e+00
29.7000	0.0000e+00
29.7550	0.0000e+00
29.8100	0.0000e+00
29.8650	0.0000e+00
29.9200	0.0000e+00
29.9750	0.0000e+00
30.0300	0.0000e+00
30.0850	0.0000e+00
30.1400	0.0000e+00
30.1950	0.0000e+00
30.2500	0.0000e+00
30.3050	0.0000e+00
30.3600	0.0000e+00
30.4150	0.0000e+00
30.4700	0.0000e+00
30.5250	0.0000e+00
30.5800	0.0000e+00
30.6350	0.0000e+00
30.6900	1.0701e-05
30.7450	6.8683e-03
30.8000	8.2372e-01
30.8550	1.8459e+01
30.9100	7.7296e+01
30.9650	6.0480e+01
31.0200	8.8424e+00
31.0750	2.4157e-01
31.1300	1.2331e-03
31.1850	0.0000e+00
31.2400	0.0000e+00
31.2950	0.0000e+00
31.3500	2.8654e-05
31.4050	1.8483e-02
31.4600	2.2277e+00
31.5150	5.0169e+01
31.5700	2.1112e+02
31.6250	1.6601e+02
31.6800	2.4393e+01
31.7350	8.8704e-01
31.7900	1.0973e+01
31.8450	1.0428e+02
31.9000	2.1636e+02
31.9550	2.9788e+02
32.0100	3.1184e+02
32.0650	7.4605e+01
32.1200	3.3712e+00
32.1750	2.8480e-02
32.2300	4.4958e-05
32.2850	0.0000e+00
32.3400	0.0000e+00
32.3950	0.0000e+00
32.4500	0.0000e+00
32.5050	0.0000e+00
32.5600	0.0000e+00
32.6150	0.0000e+00
32.6700	0.0000e+00
32.7250	0.0000e+00
32.7800	0.0000e+00
32.8350	0.0000e+00
32.8900	0.0000e+00
32.9450	0.0000e+00
33.0000	0.0000e+00
33.0550	0.0000e+00
33.1100	0.0000e+00
33.1650	0.0000e+00
33.2200	0.0000e+00
33.2750	0.0000e+00
33.3300	0.0000e+00
33.3850	0.0000e+00
33.4400	0.0000e+00
33.4950	0.0000e+00
33.5500	0.0000e+00
33.6050	0.0000e+00
33.6600	0.0000e+00
33.7150	0.0000e+00
33.7700	0.0000e+00
33.8250	0.0000e+00
33.8800	0.0000e+00
33.9350	0.0000e+00
33.9900	0.0000e+00
34.0450	0.0000e+00
34.1000	0.0000e+00
34.1550	0.0000e+00
34.2100	0.0000e+00
34.2650	0.0000e+00
34.3200	0.0000e+00
34.3750	0.0000e+00
34.4300	0.0000e+00
34.4850	0.0000e+00
34.5400	2.0290e-05
34.5950	9.7527e-03
34.6500	8.7593e-01
34.7050	1.4700e+01
34.7600	4.6098e+01
34.8150	2.7011e+01
34.8700	2.9721e+00
34.9250	1.4646e+00
34.9800	2.5128e+01
35.0350	8.4025e+01
35.0900	5.2502e+01
35.1450	6.1298e+00
35.2000	1.3373e-01
35.2550	5.4514e-04
35.3100	0.0000e+00
35.3650	0.0000e+00
35.4200	0.0000e+00
35.4750	0.0000e+00
35.5300	0.0000e+00
35.5850	0.0000e+00
35.6400	0.0000e+00
35.6950	0.0000e+00
35.7500	0.0000e+00
35.8050	0.0000e+00
35.8600	0.0000e+00
35.9150	0.0000e+00
35.9700	0.0000e+00
36.0250	0.0000e+00
36.0800	0.0000e+00
36.1350	0.0000e+00
36.1900	0.0000e+00
36.2450	0.0000e+00
36.3000	0.0000e+00
36.3550	0.0000e+00
36.4100	0.0000e+00
36.4650	0.0000e+00
36.5200	0.0000e+00
36.5750	0.0000e+00
36.6300	0.0000e+00
36.6850	0.0000e+00
36.7400	0.0000e+00
36.7950	0.0000e+00
36.8500	0.0000e+00
36.9050	0.0000e+00
36.9600	0.0000e+00
37.0150	0.0000e+00
37.0700	0.0000e+00
37.1250	4.0581e-04
37.1800	7.8354e-02
37.2350	2.8269e+00
37.2900	1.9057e+01
37.3450	2.4006e+01
37.4000	5.6505e+00
37.4550	2.4852e-01
37.5100	2.0424e-03
37.5650	3.1364e-06
37.6200	0.0000e+00
37.6750	0.0000e+00
37.7300	0.0000e+00
37.7850	0.0000e+00
37.8400	0.0000e+00
37.8950	0.0000e+00
37.9500	0.0000e+00
38.0050	0.0000e+00
38.0600	0.0000e+00
38.1150	0.0000e+00
38.1700	0.0000e+00
38.2250	0.0000e+00
38.2800	0.0000e+00
38.3350	0.0000e+00
38.3900	0.0000e+00
38.4450	0.0000e+00
38.5000	0.0000e+00
38.5550	0.0000e+00
38.6100	0.0000e+00
38.6650	0.0000e+00
38.7200	0.0000e+00
38.7750	0.0000e+00
38.8300	0.0000e+00
38.8850	0.0000e+00
38.9400	0.0000e+00
38.9950	0.0000e+00
39.0500	0.0000e+00
39.1050	0.0000e+00
39.1600	0.0000e+00
39.2150	0.0000e+00
39.2700	0.0000e+00
39.3250	0.0000e+00
39.3800	0.0000e+00
39.4350	0.0000e+00
39.4900	0.0000e+00
39.5450	0.0000e+00
39.6000	0.0000e+00
39.6550	0.0000e+00
39.7100	0.0000e+00
39.7650	0.0000e+00
39.8200	0.0000e+00
39.8750	0.0000e+00
39.9300	0.0000e+00
39.9850	0.0000e+00
40.0400	0.0000e+00
40.0950	0.0000e+00
40.1500	0.0000e+00
40.2050	0.0000e+00
40.2600	9.0926e-04
40.3150	2.6835e-01
40.3700	1.4798e+01
40.4250	1.5249e+02
40.4800	2.9361e+02
40.5350	1.0564e+02
40.5900	7.1022e+00
40.6450	2.3225e-01
40.7000	6.7036e+00
40.7550	5.8700e+01
40.8100	9.6047e+01
40.8650	2.9366e+01
40.9200	1.6777e+00
40.9750	1.7909e-02
41.0300	3.5723e-05
41.0850	0.0000e+00
41.1400	0.0000e+00
41.1950	0.0000e+00
41.2500	0.0000e+00
41.3050	0.0000e+00
41.3600	0.0000e+00
41.4150	0.0000e+00
41.4700	0.0000e+00
41.5250	0.0000e+00
41.5800	0.0000e+00
41.6350	0.0000e+00
41.6900	0.0000e+00
41.7450	0.0000e+00
41.8000	0.0000e+00
41.8550	0.0000e+00
41.9100	0.0000e+00
41.9650	0.0000e+00
42.0200	8.2400e-07
42.0750	7.0534e-04
42.1300	1.1282e-01
42.1850	3.3719e+00
42.2400	1.8831e+01
42.2950	1.9650e+01
42.3500	3.8316e+00
42.4050	1.4189e-01
42.4600	2.2139e-01
42.5150	3.9743e+00
42.5700	1.3597e+01
42.6250	1.4849e+01
42.6800	5.0496e+01
42.7350	9.7981e+01
42.7900	4.2850e+01
42.8450	3.7256e+00
42.9000	7.8998e-02
42.9550	2.1850e+00
43.0100	5.1598e+01
43.0650	2.2770e+02
43.1200	1.8775e+02
43.1750	2.9073e+01
43.2300	5.6999e+00
43.2850	3.1100e+01
43.3400	4.2219e+01
43.3950	2.2262e+01
43.4500	6.4950e+00
43.5050	4.9810e-01
43.5600	7.4421e-03
43.6150	2.0861e-05
43.6700	0.0000e+00
43.7250	0.0000e+00
43.7800	0.0000e+00
43.8350	0.0000e+00
43.8900	0.0000e+00
43.9450	0.0000e+00
44.0000	0.0000e+00
44.0550	0.0000e+00
44.1100	0.0000e+00
44.1650	0.0000e+00
44.2200	0.0000e+00
44.2750	0.0000e+00
44.3300	0.0000e+00
44.3850	0.0000e+00
44.4400	0.0000e+00
44.4950	0.0000e+00
44.5500	0.0000e+00
44.6050	0.0000e+00
44.6600	0.0000e+00
44.7150	0.0000e+00
44.7700	0.0000e+00
44.8250	0.0000e+00
44.8800	0.0000e+00
44.9350	0.0000e+00
44.9900	1.3016e-05
45.0450	4.0212e-03
45.1000	2.3214e-01
45.1550	2.5042e+00
45.2100	5.0476e+00
45.2650	1.9011e+00
45.3200	1.3379e-01
45.3750	1.7595e-03
45.4300	4.3234e-06
45.4850	0.0000e+00
45.5400	0.0000e+00
45.5950	9.4275e-06
45.6500	2.0565e-03
45.7050	9.7032e-02
45.7600	1.7822e+00
45.8150	1.6437e+01
45.8700	3.8636e+01
45.9250	1.7685e+01
45.9800	1.5194e+00
46.0350	2.4405e-02
46.0900	7.3247e-05
46.1450	0.0000e+00
46.2000	0.0000e+00
46.2550	0.0000e+00
46.3100	0.0000e+00
46.3650	0.0000e+00
46.4200	0.0000e+00
46.4750	0.0000e+00
46.5300	0.0000e+00
46.5850	0.0000e+00
46.6400	0.0000e+00
46.6950	0.0000e+00
46.7500	0.0000e+00
46.8050	0.0000e+00
46.8600	0.0000e+00
46.9150	0.0000e+00
46.9700	0.0000e+00
47.0250	0.0000e+00
47.0800	0.0000e+00
47.1350	0.0000e+00
47.1900	0.0000e+00
47.2450	0.0000e+00
47.3000	5.9882e-04
47.3550	1.2433e-01
47.4100	4.8238e+00
47.4650	3.4985e+01
47.5200	4.7900e+01
47.5750	1.5397e+01
47.6300	4.6603e+00
47.6850	9.2390e-01
47.7400	3.8553e-02
47.7950	3.0212e-04
47.8500	4.4248e-07
47.9050	0.0000e+00
47.9600	1.8112e-06
48.0150	6.1370e-04
48.0700	3.8857e-02
48.1250	4.5970e-01
48.1800	1.0162e+00
48.2350	4.1978e-01
48.2900	3.2401e-02
48.3450	4.6731e-04
48.4000	1.2594e-06
48.4550	0.0000e+00
48.5100	0.0000e+00
48.5650	0.0000e+00
48.6200	0.0000e+00
48.6750	0.0000e+00
48.7300	0.0000e+00
48.7850	0.0000e+00
48.8400	0.0000e+00
48.8950	0.0000e+00
48.9500	0.0000e+00
49.0050	0.0000e+00
49.0600	0.0000e+00
49.1150	0.0000e+00
49.1700	0.0000e+00
49.2250	0.0000e+00
49.2800	0.0000e+00
49.3350	0.0000e+00
49.3900	0.0000e+00
49.4450	0.0000e+00
49.5000	0.0000e+00
49.5550	0.0000e+00
49.6100	0.0000e+00
49.6650	0.0000e+00
49.7200	0.0000e+00
49.7750	0.0000e+00
49.8300	0.0000e+00
49.8850	0.0000e+00
49.9400	0.0000e+00
49.9950	0.0000e+00
50.0500	1.8477e-04
50.1050	6.0444e-02
50.1600	3.6947e+00
50.2150	4.2200e+01
50.2700	9.0066e+01
50.3250	3.5918e+01
50.3800	2.6765e+00
50.4350	3.7268e-02
50.4900	9.6964e-05
50.5450	0.0000e+00
50.6000	0.0000e+00
50.6550	0.0000e+00
50.7100	0.0000e+00
50.7650	0.0000e+00
50.8200	0.0000e+00
50.8750	0.0000e+00
50.9300	0.0000e+00
50.9850	0.0000e+00
51.0400	0.0000e+00
51.0950	0.0000e+00
51.1500	0.0000e+00
51.2050	0.0000e+00
51.2600	0.0000e+00
51.3150	0.0000e+00
51.3700	0.0000e+00
51.4250	0.0000e+00
51.4800	0.0000e+00
51.5350	0.0000e+00
51.5900	6.6049e-05
51.6450	1.4033e-02
51.7000	5.5709e-01
51.7550	4.1325e+00
51.8100	5.7281e+00
51.8650	1.4836e+00
51.9200	7.1802e-02
51.9750	2.5163e-03
52.0300	2.4193e-01
52.0850	6.1829e+00
52.1400	3.3513e+01
52.1950	4.2596e+01
52.2500	1.3210e+01
52.3050	9.3081e-01
52.3600	1.2066e-01
52.4150	2.8334e+00
52.4700	1.3998e+01
52.5250	1.2921e+01
52.5800	2.2319e+00
52.6350	4.1166e-01
52.6900	6.8404e+00
52.7450	2.5725e+01
52.8000	1.8078e+01
52.8550	2.3739e+00
52.9100	5.8249e-02
52.9650	2.6706e-04
53.0200	0.0000e+00
53.0750	0.0000e+00
53.1300	0.0000e+00
53.1850	0.0000e+00
53.2400	0.0000e+00
53.2950	0.0000e+00
53.3500	0.0000e+00
53.4050	0.0000e+00
53.4600	0.0000e+00
53.5150	0.0000e+00
53.5700	0.0000e+00
53.6250	0.0000e+00
53.6800	0.0000e+00
53.7350	0.0000e+00
53.7900	0.0000e+00
53.8450	0.0000e+00
53.9000	0.0000e+00
53.9550	0.0000e+00
54.0100	0.0000e+00
54.0650	0.0000e+00
54.1200	5.4021e-05
54.1750	1.5534e-02
54.2300	8.3466e-01
54.2850	8.3799e+00
54.3400	1.5721e+01
54.3950	5.5110e+00
54.4500	3.6122e-01
54.5050	6.4128e-02
54.5600	2.7264e+00
54.6150	2.3261e+01
54.6700	3.7084e+01
54.7250	1.1079e+01
54.7800	1.2881e+00
54.8350	2.6192e+00
54.8900	1.8949e+00
54.9450	2.5677e-01
55.0000	6.5016e-03
55.0550	3.0761e-05
55.1100	0.0000e+00
55.1650	0.0000e+00
55.2200	0.0000e+00
55.2750	0.0000e+00
55.3300	0.0000e+00
55.3850	0.0000e+00
55.4400	0.0000e+00
55.4950	7.8458e-06
55.5500	2.9028e-03
55.6050	2.0068e-01
55.6600	2.5924e+00
55.7150	6.2577e+00
55.7700	2.8225e+00
55.8250	2.3788e-01
55.8800	3.7819e-03
55.9350	1.2476e-02
55.9900	8.1023e-01
56.0450	9.8407e+00
56.1000	2.2333e+01
56.1550	9.4709e+00
56.2100	8.0321e-01
56.2650	1.8389e+00
56.3200	1.1832e+01
56.3750	1.4326e+01
56.4300	3.4089e+00
56.4850	4.9073e-01
56.5400	1.3509e-01
56.5950	9.4777e-03
56.6500	1.2520e-04
56.7050	3.0910e-07
56.7600	0.0000e+00
56.8150	0.0000e+00
56.8700	0.0000e+00
56.9250	0.0000e+00
56.9800	0.0000e+00
57.0350	0.0000e+00
57.0900	0.0000e+00
57.1450	0.0000e+00
57.2000	0.0000e+00
57.2550	0.0000e+00
57.3100	0.0000e+00
57.3650	0.0000e+00
57.4200	0.0000e+00
57.4750	0.0000e+00
57.5300	0.0000e+00
57.5850	0.0000e+00
57.6400	0.0000e+00
57.6950	0.0000e+00
57.7500	0.0000e+00
57.8050	0.0000e+00
57.8600	4.4880e-05
57.9150	1.4430e-02
57.9700	8.6689e-01
58.0250	9.7316e+00
58.0800	2.0413e+01
58.1350	8.0010e+00
58.1900	5.8598e-01
58.2450	8.0192e-03
58.3000	2.0506e-05
58.3550	0.0000e+00
58.4100	0.0000e+00
58.4650	0.0000e+00
58.5200	0.0000e+00
58.5750	0.0000e+00
58.6300	0.0000e+00
58.6850	0.0000e+00
58.7400	0.0000e+00
58.7950	0.0000e+00
58.8500	3.1483e-05
58.9050	1.0490e-02
58.9600	6.5310e-01
59.0150	7.5979e+00
59.0700	1.6516e+01
59.1250	6.7087e+00
59.1800	5.0918e-01
59.2350	7.2213e-03
59.2900	1.9137e-05
59.3450	0.0000e+00
59.4000	0.0000e+00
59.4550	0.0000e+00
59.5100	0.0000e+00
59.5650	0.0000e+00
59.6200	0.0000e+00
59.6750	0.0000e+00
59.7300	0.0000e+00
59.7850	0.0000e+00
59.8400	0.0000e+00
59.8950	1.3528e-04
59.9500	3.5614e-02
60.0050	1.7519e+00
60.0600	1.6104e+01
60.1150	2.7660e+01
60.1700	8.8771e+00
60.2250	5.3236e-01
60.2800	6.1972e-03
60.3350	1.3887e-02
60.3900	1.8750e-01
60.4450	1.4916e+00
60.5000	7.1838e+00
60.5550	7.9017e+00
60.6100	1.6480e+00
60.6650	7.5719e-02
60.7200	8.6298e-01
60.7750	1.2160e+01
60.8300	3.2032e+01
60.8850	1.5852e+01
60.9400	3.6811e+00
60.9950	1.6257e+01
61.0500	4.6680e+01
61.1050	3.9190e+01
61.1600	6.8620e+00
61.2150	2.2883e-01
61.2700	1.4301e-03
61.3250	0.0000e+00
61.3800	0.0000e+00
61.4350	0.0000e+00
61.4900	0.0000e+00
61.5450	0.0000e+00
61.6000	0.0000e+00
61.6550	0.0000e+00
61.7100	0.0000e+00
61.7650	0.0000e+00
61.8200	0.0000e+00
61.8750	1.8728e-05
61.9300	6.2842e-03
61.9850	3.9403e-01
62.0400	4.6165e+00
62.0950	1.0106e+01
62.1500	4.1343e+00
62.2050	3.1601e-01
62.2600	4.5135e-03
62.3150	1.2080e-05
62.3700	5.9041e-06
62.4250	1.8870e-04
62.4800	1.1270e-03
62.5350	1.2576e-03
62.5900	2.6225e-04
62.6450	1.0218e-05
62.7000	7.4393e-08
62.7550	1.4604e-05
62.8100	7.4170e-03
62.8650	7.0466e-01
62.9200	1.2599e+01
62.9750	4.3905e+01
63.0300	3.5377e+01
63.0850	9.8820e+00
63.1400	9.7751e-01
63.1950	2.2781e-02
63.2500	1.0375e-04
63.3050	0.0000e+00
63.3600	0.0000e+00
63.4150	0.0000e+00
63.4700	0.0000e+00
63.5250	0.0000e+00
63.5800	2.0999e-05
63.6350	4.2405e-03
63.6900	1.6001e-01
63.7450	1.1282e+00
63.8000	1.4863e+00
63.8550	3.6590e-01
63.9100	1.6837e-02
63.9650	2.5034e-03
64.0200	1.7947e-01
64.0750	2.5517e+00
64.1300	6.7792e+00
64.1850	3.3654e+00
64.2400	3.1217e-01
64.2950	6.6508e-03
64.3500	1.3262e-01
64.4050	3.1148e+00
64.4600	1.4997e+01
64.5150	1.4093e+01
64.5700	2.5209e+00
64.6250	8.4903e-02
64.6800	5.3627e-04
64.7350	2.4696e-04
64.7900	3.3859e-02
64.8450	8.6744e-01
64.9000	4.1525e+00
64.9550	3.7144e+00
65.0100	6.2082e-01
65.0650	1.9389e-02
65.1200	1.1315e-04
65.1750	0.0000e+00
65.2300	0.0000e+00
65.2850	0.0000e+00
65.3400	0.0000e+00
65.3950	0.0000e+00
65.4500	0.0000e+00
65.5050	0.0000e+00
65.5600	0.0000e+00
65.6150	0.0000e+00
65.6700	0.0000e+00
65.7250	4.0521e-06
65.7800	2.6808e-03
65.8350	3.3140e-01
65.8900	7.6550e+00
65.9450	3.3041e+01
66.0000	2.6648e+01
66.0550	4.0159e+00
66.1100	1.1308e-01
66.1650	5.9503e-04
66.2200	0.0000e+00
66.2750	0.0000e+00
66.3300	0.0000e+00
66.3850	0.0000e+00
66.4400	3.6788e-05
66.4950	1.2322e-02
66.5500	7.7115e-01
66.6050	9.0181e+00
66.6600	1.9706e+01
66.7150	8.0491e+00
66.7700	8.6685e-01
66.8250	4.0327e+00
66.8800	1.1960e+01
66.9350	6.6425e+00
66.9900	6.8934e-01
67.0450	1.3367e-02
67.1000	4.8436e-05
67.1550	0.0000e+00
67.2100	0.0000e+00
67.2650	0.0000e+00
67.3200	0.0000e+00
67.3750	4.7365e-06
67.4300	2.0425e-03
67.4850	1.6457e-01
67.5400	2.4778e+00
67.5950	6.9709e+00
67.6500	3.6648e+00
67.7050	4.2742e-01
67.7600	3.0460e+00
67.8150	2.5589e+01
67.8700	4.0273e+01
67.9250	1.1917e+01
67.9800	7.1594e-01
68.0350	8.3917e-02
68.0900	1.9112e+00
68.1450	1.0070e+01
68.2000	9.9912e+00
68.2550	2.3040e+00
68.3100	5.9518e-01
68.3650	1.2389e-01
68.4200	1.2266e+00
68.4750	2.0868e+01
68.5300	6.6570e+01
68.5850	3.9743e+01
68.6400	5.6627e+00
68.6950	4.7518e+00
68.7500	3.2645e+00
68.8050	4.2724e-01
68.8600	1.0449e-02
68.9150	4.7753e-05
68.9700	0.0000e+00
69.0250	0.0000e+00
69.0800	0.0000e+00
69.1350	0.0000e+00
69.1900	0.0000e+00
69.2450	0.0000e+00
69.3000	0.0000e+00
69.3550	0.0000e+00
69.4100	0.0000e+00
69.4650	0.0000e+00
69.5200	0.0000e+00
69.5750	0.0000e+00
69.6300	0.0000e+00
69.6850	0.0000e+00
69.7400	0.0000e+00
69.7950	0.0000e+00
69.8500	0.0000e+00
69.9050	5.1629e-06
69.9600	1.4845e-03
70.0150	7.9755e-02
70.0700	8.0067e-01
70.1250	1.5019e+00
70.1800	5.2647e-01
70.2350	4.2135e-02
70.2900	4.9127e-01
70.3450	5.8815e+00
70.4000	1.3169e+01
70.4550	5.5093e+00
70.5100	4.3069e-01
70.5650	6.2913e-03
70.6200	1.7204e-05
70.6750	2.9907e-05
70.7300	5.2476e-03
70.7850	1.7205e-01
70.8400	1.0540e+00
70.8950	1.2066e+00
70.9500	2.5810e-01
71.0050	1.0316e-02
71.0600	7.7045e-05
71.1150	1.0752e-07
71.1700	0.0000e+00
71.2250	0.0000e+00
71.2800	0.0000e+00
71.3350	0.0000e+00
71.3900	0.0000e+00
71.4450	0.0000e+00
71.5000	0.0000e+00
71.5550	0.0000e+00
71.6100	0.0000e+00
71.6650	1.5966e-06
71.7200	4.3034e-04
71.7750	2.1701e-02
71.8300	2.1159e-01
71.8850	7.5660e-01
71.9400	4.0026e+00
71.9950	7.0939e+00
72.0500	2.4157e+00
72.1050	1.5386e-01
72.1600	1.8311e-03
72.2150	4.0722e-06
72.2700	0.0000e+00
72.3250	0.0000e+00
72.3800	0.0000e+00
72.4350	0.0000e+00
72.4900	0.0000e+00
72.5450	0.0000e+00
72.6000	0.0000e+00
72.6550	0.0000e+00
72.7100	0.0000e+00
72.7650	0.0000e+00
72.8200	0.0000e+00
72.8750	0.0000e+00
72.9300	0.0000e+00
72.9850	0.0000e+00
73.0400	0.0000e+00
73.0950	0.0000e+00
73.1500	1.1945e-06
73.2050	8.7428e-04
73.2600	1.1957e-01
73.3150	3.0555e+00
73.3700	1.4590e+01
73.4250	1.3018e+01
73.4800	2.1703e+00
73.5350	6.7611e-02
73.5900	3.9357e-04
73.6450	0.0000e+00
73.7000	0.0000e+00
73.7550	0.0000e+00
73.8100	1.0103e-06
73.8650	7.5773e-04
73.9200	1.0619e-01
73.9750	2.7808e+00
74.0300	1.3607e+01
74.0850	1.2441e+01
74.1400	2.1256e+00
74.1950	6.7856e-02
74.2500	4.0477e-04
74.3050	0.0000e+00
74.3600	0.0000e+00
74.4150	0.0000e+00
74.4700	1.4467e-07
74.5250	9.1460e-05
74.5800	1.0804e-02
74.6350	2.3850e-01
74.6900	9.8371e-01
74.7450	7.5818e-01
74.8000	1.1240e-01
74.8550	1.6710e-01
74.9100	1.5669e+00
74.9650	2.7947e+00
75.0200	9.3197e-01
75.0750	1.2206e-01
75.1300	1.3235e+00
75.1850	5.4452e+00
75.2400	7.2469e+00
75.2950	6.6092e+00
75.3500	1.9497e+00
75.4050	4.6555e-01
75.4600	3.0767e+00
75.5150	5.7505e+00
75.5700	4.5502e+00
75.6250	2.1215e+00
75.6800	2.5297e-01
75.7350	5.8265e-03
75.7900	2.5147e-05
75.8450	4.8239e-06
75.9000	2.2945e-03
75.9550	2.0393e-01
76.0100	3.3867e+00
76.0650	1.0509e+01
76.1200	6.0939e+00
76.1750	6.6027e-01
76.2300	1.3367e-02
76.2850	5.1249e-05
76.3400	2.4654e-04
76.3950	1.6691e-02
76.4500	2.1114e-01
76.5050	4.9910e-01
76.5600	2.2045e-01
76.6150	1.8194e-02
76.6700	2.8059e-04
76.7250	8.0855e-07
76.7800	3.4588e-05
76.8350	1.0356e-02
76.8900	5.7944e-01
76.9450	6.0578e+00
77.0000	1.1834e+01
77.0550	4.3196e+00
77.1100	2.9462e-01
77.1650	3.8331e-03
77.2200	1.9769e-02
77.2750	9.3402e-01
77.3300	8.2496e+00
77.3850	1.3615e+01
77.4400	4.1986e+00
77.4950	2.4194e-01
77.5500	2.6050e-03
77.6050	1.1136e-04
77.6600	2.1778e-02
77.7150	8.4700e-01
77.7700	6.6217e+00
77.8250	1.2847e+01
77.8800	8.4102e+00
77.9350	1.6532e+00
77.9900	8.8153e-02
78.0450	2.1420e-01
78.1000	5.1044e-01
78.1550	2.2815e-01
78.2100	2.4858e-02
78.2650	2.8417e-02
78.3200	2.5295e-02
78.3750	4.3167e-03
78.4300	3.6167e-03
78.4850	3.4716e-02
78.5400	6.4650e-02
78.5950	2.2497e-02
78.6500	1.4649e-03
78.7050	5.1996e-04
78.7600	2.1924e-02
78.8150	1.7885e-01
78.8700	2.7263e-01
78.9250	7.7656e-02
78.9800	4.6930e-03
79.0350	4.5751e-02
79.0900	7.0790e-01
79.1450	2.1191e+00
79.2000	1.2700e+00
79.2550	1.6060e-01
79.3100	4.4900e-03
79.3650	3.8546e-05
79.4200	3.4444e-03
79.4750	2.0645e-01
79.5300	2.3123e+00
79.5850	4.8393e+00
79.6400	1.8924e+00
79.6950	1.3828e-01
79.7500	1.8881e-03
79.8050	4.8170e-06
79.8600	0.0000e+00
79.9150	0.0000e+00
79.9700	0.0000e+00
80.0000	0.0000e+00