File: XRD_Data/standards/pbbr2.txt
5	0
5.04	0
5.08	0
5.12	0
5.16	0
5.2	0
5.24	0
5.28	0
5.32	0
5.36	0
5.4	0
5.44	0
5.48	0
5.52	0
5.56	0
5.6	0
5.64	0
5.68	0
5.72	0
5.76	0
5.8	0
5.84	0
5.88	0
5.92	0
5.96	0
6	0
6.04	0
6.08	0
6.12	0
6.16	0
6.2	0
6.24	0
6.28	0
6.32	0
6.36	0
6.4	0
6.44	0
6.48	0
6.52	0
6.56	0
6.6	0
6.64	0
6.68	0
6.72	0
6.76	0
6.8	0
6.84	0
6.88	0
6.92	0
6.96	0
7	0
7.04	0
7.08	0
7.12	0
7.16	0
7.2	0
7.24	0
7.28	0
7.32	0
7.36	0
7.4	0
7.44	0
7.48	0
7.52	0
7.56	0
7.6	0
7.64	0
7.68	0
7.72	0
7.76	0
7.8	0
7.84	0
7.88	0
7.92	0
7.96	0
8	0
8.04	0
8.08	0
8.12	0
8.16	0
8.2	0
8.24	0
8.28	0
8.32	0
8.36	0
8.4	0
8.44	0
8.48	0
8.52	0
8.56	0
8.6	0
8.64	0
8.68	0
8.72	0
8.76	0
8.8	0
8.84	0
8.88	0
8.92	0
8.96	0
9	0
9.04	0
9.08	0
9.12	0
9.16	0
9.2	0
9.24	0
9.28	0
9.32	0
9.36	0
9.4	0
9.44	0
9.48	0
9.52	0
9.56	0
9.6	0
9.64	0
9.68	0
9.72	0
9.76	0
9.8	0
9.84	0
9.88	0
9.92	0
9.96	0
10	0
10.04	0
10.08	0
10.12	0
10.16	0
10.2	0
10.24	0
10.28	0
10.32	0
10.36	0
10.4	0
10.44	0
10.48	0
10.52	0
10.56	0
10.6	0
10.64	0
10.68	0
10.72	0
10.76	0
10.8	0
10.84	0
10.88	0
10.92	0
10.96	0
11	0
11.04	0
11.08	0
11.12	0
11.16	0
11.2	0
11.24	0
11.28	0
11.32	0
11.36	0
11.4	0
11.44	0
11.48	0
11.52	0
11.56	0
11.6	0
11.64	0
11.68	0
11.72	0
11.76	0
11.8	0
11.84	0
11.88	0
11.92	0
11.96	0
12	0
12.04	0
12.08	0
12.12	0
12.16	0
12.2	0
12.24	0
12.28	0
12.32	0
12.36	0
12.4	0
12.44	0
12.48	0
12.52	0
12.56	0
12.6	0
12.64	0
12.68	0
12.72	0
12.76	0
12.8	0
12.84	0
12.88	0
12.92	0
12.96	0.062846
13	0.0664498
13.04	0.0703726
13.08	0.0746531
13.12	0.0793362
13.16	0.0844739
13.2	0.0901271
13.24	0.0963669
13.28	0.103277
13.32	0.110958
13.36	0.119528
13.4	0.12913
13.44	0.139936
13.48	0.152156
13.52	0.166048
13.56	0.18193
13.6	0.200202
13.64	0.221367
13.68	0.246068
13.72	0.27514
13.76	0.309674
13.8	0.351126
13.84	0.40147
13.88	0.463435
13.92	0.540879
13.96	0.639399
14	0.767353
14.04	0.937662
14.08	1.17114
14.12	1.50298
14.16	1.99638
14.2	2.77354
14.24	4.09625
14.28	6.65663
14.32	12.9159
14.36	30.1175
14.4	60.4242
14.44	50.3562
14.48	22.2712
14.52	10.0054
14.56	5.54357
14.6	3.54893
14.64	2.46042
14.68	1.80138
14.72	1.3738
14.76	1.08134
14.8	0.872805
14.84	0.719025
14.88	0.602446
14.92	0.512002
14.96	0.440447
15	0.382876
15.04	0.335876
15.08	0.297014
15.12	0.264515
15.16	0.237066
15.2	0.213672
15.24	0.193574
15.28	0.176181
15.32	0.161029
15.36	0.147749
15.4	0.136045
15.44	0.125678
15.48	0.116451
15.52	0.108204
15.56	0.100802
15.6	0.0941345
15.64	0.0881067
15.68	0.0826395
15.72	0.0776657
15.76	0.0731275
15.8	0.0689756
15.84	0.0651674
15.88	0.061666
15.92	0
15.96	0
16	0
16.04	0
16.08	0
16.12	0
16.16	0
16.2	0
16.24	0
16.28	0
16.32	0
16.36	0
16.4	0
16.44	0
16.48	0
16.52	0
16.56	0
16.6	0
16.64	0
16.68	0
16.72	0
16.76	0
16.8	0
16.84	0
16.88	0
16.92	0
16.96	0
17	0
17.04	0
17.08	0
17.12	0
17.16	0
17.2	0
17.24	0
17.28	2.83692
17.32	2.99964
17.36	3.17677
17.4	3.37005
17.44	3.58152
17.48	3.81352
17.52	4.06881
17.56	4.35059
17.6	4.66268
17.64	5.00956
17.68	5.39662
17.72	5.83028
17.76	6.31836
17.8	6.87032
17.84	7.49783
17.88	8.21529
17.92	9.04074
17.96	9.99695
18	11.113
18.04	12.4267
18.08	13.9872
18.12	15.8606
18.16	18.1361
18.2	20.9373
18.24	24.4387
18.28	28.8937
18.32	34.6808
18.36	42.3855
18.4	52.9508
18.44	67.9728
18.48	90.3183
18.52	125.535
18.56	185.524
18.6	301.831
18.64	586.789
18.68	1369.32
18.72	2735.22
18.76	2258.77
18.8	997.101
18.84	448.65
18.88	249.007
18.92	159.556
18.96	110.68
19	81.0675
19.04	61.8445
19.08	48.6911
19.12	39.3089
19.16	32.3883
19.2	27.1408
19.24	23.0689
19.28	19.8469
19.32	17.2542
19.36	15.1373
19.4	15.3162
19.44	13.9634
19.48	12.8477
19.52	11.9258
19.56	11.1649
19.6	10.5398
19.64	10.0318
19.68	9.62629
19.72	9.31268
19.76	9.08326
19.8	8.93295
19.84	8.85895
19.88	8.86064
19.92	8.9396
19.96	9.0997
20	9.34743
20.04	9.69235
20.08	10.1478
20.12	10.732
20.16	11.4694
20.2	12.3932
20.24	10.913
20.28	17.8304
20.32	20.0852
20.36	22.8608
20.4	26.3418
20.44	30.8041
20.48	36.6755
20.52	44.6483
20.56	59.1475
20.6	76.0015
20.64	102.47
20.68	147.716
20.72	237.233
20.76	463.26
20.8	1070.12
20.84	1945.22
20.88	1387.93
20.92	611.014
20.96	297.223
21	182.761
21.04	131.213
21.08	104.258
21.12	89.6659
21.16	82.2836
21.2	79.7041
21.24	80.8216
21.28	85.2622
21.32	93.1739
21.36	105.21
21.4	122.678
21.44	147.911
21.48	185.089
21.52	242.048
21.56	334.665
21.6	499.936
21.64	853.7
21.68	1803.57
21.72	4100.62
21.76	5577.56
21.8	3067.89
21.84	1453.22
21.88	958.062
21.92	1012.57
21.96	1719.07
22	3222.02
22.04	2878.27
22.08	1342.01
22.12	633.892
22.16	378.361
22.2	258.157
22.24	190.86
22.28	148.978
22.32	119.245
22.36	99.8735
22.4	85.8788
22.44	75.517
22.48	67.7236
22.52	62.2167
22.56	57.7806
22.6	54.491
22.64	52.1457
22.68	50.6092
22.72	49.7956
22.76	49.6576
22.8	50.1809
22.84	51.3817
22.88	53.3083
22.92	56.0447
22.96	59.7193
23	64.5181
23.04	70.7061
23.08	78.6608
23.12	88.9268
23.16	102.304
23.2	119.998
23.24	138.67
23.28	172.076
23.32	219.902
23.36	291.558
23.4	405.432
23.44	601.607
23.48	987.09
23.52	1966.31
23.56	4617.97
23.6	8647.01
23.64	6362.93
23.68	2759.15
23.72	1277.8
23.76	736.555
23.8	494.334
23.84	375.314
23.88	345.118
23.92	432.341
23.96	542.644
24	357.854
24.04	198.937
24.08	130.419
24.12	98.1113
24.16	78.7042
24.2	65.3847
24.24	55.5908
24.28	48.0596
24.32	42.0823
24.36	37.2256
24.4	33.2072
24.44	29.8337
24.48	26.9676
24.52	24.5078
24.56	22.3784
24.6	20.5208
24.64	18.8897
24.68	17.4487
24.72	16.169
24.76	15.0268
24.8	14.0028
24.84	13.0811
24.88	12.2483
24.92	11.4933
24.96	10.8065
25	10.1798
25.04	9.60651
25.08	9.08056
25.12	0.608803
25.16	0.56899
25.2	0.532956
25.24	0.500238
25.28	0.470442
25.32	0.44323
25.36	0.418311
25.4	0.395435
25.44	0
25.48	0
25.52	0
25.56	0
25.6	0
25.64	0
25.68	0
25.72	0
25.76	0
25.8	0
25.84	0
25.88	0
25.92	0
25.96	0
26	0
26.04	0
26.08	0
26.12	0
26.16	0
26.2	0
26.24	0
26.28	0
26.32	0
26.36	0
26.4	0
26.44	0
26.48	0
26.52	0
26.56	0
26.6	0
26.64	0
26.68	0
26.72	0
26.76	0
26.8	0
26.84	0
26.88	0
26.92	0
26.96	0
27	0
27.04	0
27.08	0
27.12	0
27.16	0
27.2	0
27.24	0
27.28	0
27.32	3.03538
27.36	3.21009
27.4	3.40032
27.44	3.60797
27.48	3.83523
27.52	7.43794
27.56	7.90495
27.6	8.41764
27.64	12.6912
27.68	13.5327
27.72	14.4616
27.76	15.4908
27.8	16.6354
27.84	17.9135
27.88	19.347
27.92	20.9628
27.96	22.7935
28	24.8798
28.04	27.2725
28.08	30.0364
28.12	33.2541
28.16	37.0336
28.2	41.5178
28.24	46.8996
28.28	53.4447
28.32	61.5288
28.36	71.698
28.4	84.7748
28.44	102.049
28.48	125.648
28.52	159.306
28.56	210.102
28.6	293.05
28.64	448.33
28.68	817.987
28.72	1784.65
28.76	3244.82
28.8	2534.85
28.84	1461.59
28.88	1358.14
28.92	2238.05
28.96	4050.07
29	4178.24
29.04	4358.3
29.08	3776.05
29.12	1837.59
29.16	887.987
29.2	522.353
29.24	354.587
29.28	260.645
29.32	202.348
29.36	163.813
29.4	137.188
29.44	118.222
29.48	104.454
29.52	94.3873
29.56	87.0768
29.6	81.9125
29.64	78.5002
29.68	76.5925
29.72	76.0503
29.76	76.8218
29.8	78.9339
29.84	82.4946
29.88	87.7056
29.92	94.8886
29.96	104.532
30	117.367
30.04	134.505
30.08	157.675
30.12	189.669
30.16	235.233
30.2	302.995
30.24	410.434
30.28	599.17
30.32	1008.71
30.36	1907.16
30.4	3052.58
30.44	4553.57
30.48	8632.6
30.52	8826.2
30.56	4173.85
30.6	1837.93
30.64	986.8
30.68	622.854
30.72	428.896
30.76	312.748
30.8	237.912
30.84	186.967
30.88	150.759
30.92	124.119
30.96	103.957
31	88.3324
31.04	75.9811
31.08	66.0492
31.12	57.9442
31.16	51.2442
31.2	45.6423
31.24	40.9112
31.28	36.8792
31.32	33.4153
31.36	30.4174
31.4	27.8056
31.44	25.5163
31.48	23.4985
31.52	21.711
31.56	20.12
31.6	18.6976
31.64	17.421
31.68	16.2707
31.72	15.2308
31.76	14.2875
31.8	13.4291
31.84	12.6459
31.88	10.6246
31.92	10.0346
31.96	0
32	0
32.04	0
32.08	0
32.12	0
32.16	0
32.2	0
32.24	0
32.28	0
32.32	0
32.36	0
32.4	0
32.44	0
32.48	0
32.52	0
32.56	0
32.6	8.73553
32.64	9.2391
32.68	9.78748
32.72	10.3861
32.76	11.0414
32.8	11.7607
32.84	12.5526
32.88	13.4272
32.92	14.3965
32.96	15.4745
33	16.6782
33.04	18.0278
33.08	19.5481
33.12	21.2688
33.16	23.227
33.2	25.7456
33.24	28.343
33.28	32.0163
33.32	35.5731
33.36	39.7609
33.4	44.7387
33.44	50.7186
33.48	57.9893
33.52	66.9514
33.56	78.1732
33.6	92.4829
33.64	111.124
33.68	136.034
33.72	170.355
33.76	219.455
33.8	293.091
33.84	410.426
33.88	613.602
33.92	1020.73
33.96	2059.76
34	4847.24
34.04	8748.9
34.08	6095.15
34.12	2621.26
34.16	1223.35
34.2	705.188
34.24	463.675
34.28	329.757
34.32	248.851
34.36	197.592
34.4	165.065
34.44	145.425
34.48	137.365
34.52	143.876
34.56	180.348
34.6	290.219
34.64	485.675
34.68	604.885
34.72	786.42
34.76	539.762
34.8	255.356
34.84	137.957
34.88	91.5326
34.92	68.2334
34.96	54.324
35	45.2102
35.04	38.8528
35.08	34.2161
35.12	30.7282
35.16	28.0531
35.2	25.9844
35.24	24.3916
35.28	23.1924
35.32	22.3375
35.36	21.8032
35.4	21.5875
35.44	21.7124
35.48	22.2283
35.52	14.8255
35.56	16.9016
35.6	19.8576
35.64	24.1927
35.68	30.8842
35.72	42.1532
35.76	64.8457
35.8	122.114
35.84	251.877
35.88	320.152
35.92	205.827
35.96	161.358
36	210.382
36.04	412.53
36.08	914.084
36.12	1170.98
36.16	608.186
36.2	261.535
36.24	139.133
36.28	87.891
36.32	61.7397
36.36	46.5239
36.4	36.9929
36.44	30.7141
36.48	26.4351
36.52	24.4611
36.56	22.4429
36.6	21.0785
36.64	20.2107
36.68	19.739
36.72	19.5998
36.76	19.7548
36.8	20.1841
36.84	20.883
36.88	21.86
36.92	23.1363
36.96	24.7474
37	30.345
37.04	33.0066
37.08	36.2457
37.12	40.2025
37.16	45.0709
37.2	51.1236
37.24	58.7517
37.28	68.5314
37.32	81.3374
37.36	98.2839
37.4	122.192
37.44	156.751
37.48	209.36
37.52	295.089
37.56	449.553
37.6	785.585
37.64	1702.11
37.68	3869.73
37.72	4979.71
37.76	2605.85
37.8	1161.48
37.84	658.015
37.88	511.407
37.92	585.192
37.96	958.639
38	1173.82
38.04	671.477
38.08	354.353
38.12	239.629
38.16	205.594
38.2	200.497
38.24	219.227
38.28	268.754
38.32	373.632
38.36	620.139
38.4	1309.67
38.44	2922.3
38.48	3608.73
38.52	1842.59
38.56	805.36
38.6	426.208
38.64	271.951
38.68	192.651
38.72	146.327
38.76	117.253
38.8	98.129
38.84	85.2084
38.88	76.4332
38.92	70.6238
38.96	67.0948
39	65.4656
39.04	65.5659
39.08	67.3947
39.12	71.1252
39.16	77.1021
39.2	81.1973
39.24	94.2492
39.28	112.989
39.32	140.468
39.36	182.254
39.4	249.265
39.44	365.446
39.48	601.709
39.52	1189.21
39.56	2747.98
39.6	4930.34
39.64	3849.91
39.68	2029.42
39.72	946.563
39.76	508.509
39.8	321.535
39.84	224.851
39.88	167.734
39.92	131.327
39.96	103.408
40	86.5845
40.04	74.6326
40.08	66.0495
40.12	59.912
40.16	55.6405
40.2	52.8722
40.24	51.3914
40.28	51.0926
40.32	51.9644
40.36	54.0911
40.4	57.6769
40.44	63.122
40.48	71.2935
40.52	83.9966
40.56	102.012
40.6	119.979
40.64	146.551
40.68	191.301
40.72	266.211
40.76	400.786
40.8	686.415
40.84	1451.68
40.88	3384.63
40.92	5063.57
40.96	2898.17
41	1233.26
41.04	607.025
41.08	359.694
41.12	238.975
41.16	170.146
41.2	127.142
41.24	98.5818
41.28	78.696
41.32	64.3213
41.36	53.6113
41.4	45.4318
41.44	39.0564
41.48	34.003
41.52	29.9421
41.56	26.6431
41.6	24.2737
41.64	22.0685
41.68	20.2555
41.72	18.7711
41.76	17.5698
41.8	16.6207
41.84	15.9055
41.88	15.4181
41.92	15.1659
41.96	15.1724
42	15.4841
42.04	16.1734
42.08	17.3935
42.12	19.3705
42.16	22.5239
42.2	27.6503
42.24	36.3962
42.28	52.7469
42.32	89.8325
42.36	192.291
42.4	420.039
42.44	494.49
42.48	245.513
42.52	108.394
42.56	58.4393
42.6	38.3206
42.64	29.1719
42.68	23.9072
42.72	21.4248
42.76	20.7989
42.8	21.7456
42.84	24.7519
42.88	31.0646
42.92	44.6696
42.96	78.312
43	171.222
43.04	330.779
43.08	270.398
43.12	124.17
43.16	61.4261
43.2	38.9511
43.24	29.2874
43.28	24.4798
43.32	22.1053
43.36	21.182
43.4	21.2709
43.44	22.191
43.48	24.6365
43.52	27.2878
43.56	31.0388
43.6	36.2651
43.64	43.6108
43.68	54.2018
43.72	70.213
43.76	95.5811
43.8	139.861
43.84	232.026
43.88	473.036
43.92	1051.5
43.96	1457.46
44	918.406
44.04	734.02
44.08	1011.7
44.12	910.041
44.16	542.25
44.2	372.386
44.24	283.861
44.28	255.571
44.32	354.09
44.36	342.212
44.4	180.839
44.44	98.4227
44.48	66.5479
44.52	52.586
44.56	45.199
44.6	42.3508
44.64	42.957
44.68	47.4845
44.72	57.9594
44.76	80.1248
44.8	134.059
44.84	285.953
44.88	610.914
44.92	645.004
44.96	311.883
45	144.072
45.04	86.3886
45.08	69.9785
45.12	83.1364
45.16	123.807
45.2	104.353
45.24	54.7132
45.28	31.7459
45.32	22.4421
45.36	17.7434
45.4	14.9134
45.44	11.7948
45.48	10.662
45.52	9.97882
45.56	8.86329
45.6	8.83957
45.64	9.35145
45.68	10.2888
45.72	12.168
45.76	15.4298
45.8	21.0251
45.84	33.0923
45.88	64.0176
45.92	147.831
45.96	271.31
46	195.52
46.04	85.0693
46.08	39.9581
46.12	23.2388
46.16	15.4433
46.2	11.0771
46.24	8.38109
46.28	6.59978
46.32	5.35967
46.36	3.77076
46.4	3.13156
46.44	2.64377
46.48	2.263
46.52	1.95999
46.56	1.71484
46.6	1.51363
46.64	1.24661
46.68	1.1113
46.72	0.996852
46.76	0.899195
46.8	0.815201
46.84	0.742436
46.88	1.98359
46.92	2.04419
46.96	2.08095
47	2.13131
47.04	2.32152
47.08	2.40737
47.12	2.50907
47.16	2.62789
47.2	2.76551
47.24	2.92403
47.28	3.10611
47.32	3.31503
47.36	3.55488
47.4	3.83073
47.44	3.88759
47.48	4.26963
47.52	4.71093
47.56	5.3532
47.6	5.96319
47.64	6.68421
47.68	7.54538
47.72	8.58564
47.76	10.3697
47.8	11.9803
47.84	14.0095
47.88	16.6175
47.92	20.0497
47.96	24.7927
48	31.311
48.04	40.8473
48.08	55.5865
48.12	80.0856
48.16	125.722
48.2	231.267
48.24	521.495
48.28	1122.13
48.32	1152.14
48.36	577.072
48.4	288.442
48.44	220.66
48.48	207.32
48.52	126.048
48.56	72.5682
48.6	49.1569
48.64	37.8345
48.68	31.5379
48.72	28.0789
48.76	26.6908
48.8	27.2756
48.84	30.4294
48.88	38.4584
48.92	59.7459
48.96	112.503
49	166.373
49.04	130.438
49.08	128.939
49.12	228.854
49.16	456.436
49.2	440.586
49.24	210.359
49.28	103.553
49.32	74.114
49.36	86.5435
49.4	120.328
49.44	86.3466
49.48	43.6962
49.52	25.2902
49.56	17.5194
49.6	13.3448
49.64	10.7047
49.68	8.88855
49.72	7.56948
49.76	5.34044
49.8	4.642
49.84	4.08236
49.88	3.73699
49.92	3.68194
49.96	4.07182
50	4.48677