File: XRD_Data/standards/pbcl2.txt
5.02	0
5.06	0
5.1	0
5.14	0
5.18	0
5.22	0
5.26	0
5.3	0
5.34	0
5.38	0
5.42	0
5.46	0
5.5	0
5.54	0
5.58	0
5.62	0
5.66	0
5.7	0
5.74	0
5.78	0
5.82	0
5.86	0
5.9	0
5.94	0
5.98	0
6.02	0
6.06	0
6.1	0
6.14	0
6.18	0
6.22	0
6.26	0
6.3	0
6.34	0
6.38	0
6.42	0
6.46	0
6.5	0
6.54	0
6.58	0
6.62	0
6.66	0
6.7	0
6.74	0
6.78	0
6.82	0
6.86	0
6.9	0
6.94	0
6.98	0
7.02	0
7.06	0
7.1	0
7.14	0
7.18	0
7.22	0
7.26	0
7.3	0
7.34	0
7.38	0
7.42	0
7.46	0
7.5	0
7.54	0
7.58	0
7.62	0
7.66	0
7.7	0
7.74	0
7.78	0
7.82	0
7.86	0
7.9	0
7.94	0
7.98	0
8.02	0
8.06	0
8.1	0
8.14	0
8.18	0
8.22	0
8.26	0
8.3	0
8.34	0
8.38	0
8.42	0
8.46	0
8.5	0
8.54	0
8.58	0
8.62	0
8.66	0
8.7	0
8.74	0
8.78	0
8.82	0
8.86	0
8.9	0
8.94	0
8.98	0
9.02	0
9.06	0
9.1	0
9.14	0
9.18	0
9.22	0
9.26	0
9.3	0
9.34	0
9.38	0
9.42	0
9.46	0
9.5	0
9.54	0
9.58	0
9.62	0
9.66	0
9.7	0
9.74	0
9.78	0
9.82	0
9.86	0
9.9	0
9.94	0
9.98	0
10.02	0
10.06	0
10.1	0
10.14	0
10.18	0
10.22	0
10.26	0
10.3	0
10.34	0
10.38	0
10.42	0
10.46	0
10.5	0
10.54	0
10.58	0
10.62	0
10.66	0
10.7	0
10.74	0
10.78	0
10.82	0
10.86	0
10.9	0
10.94	0
10.98	0
11.02	0
11.06	0
11.1	0
11.14	0
11.18	0
11.22	0
11.26	0
11.3	0
11.34	0
11.38	0
11.42	0
11.46	0
11.5	0
11.54	0
11.58	0
11.62	0
11.66	0
11.7	0
11.74	0
11.78	0
11.82	0
11.86	0
11.9	0
11.94	0
11.98	0
12.02	0
12.06	0
12.1	0
12.14	0
12.18	0
12.22	0
12.26	0
12.3	0
12.34	0
12.38	0
12.42	0
12.46	0
12.5	0
12.54	0
12.58	0
12.62	0
12.66	0
12.7	0
12.74	0
12.78	0
12.82	0
12.86	0
12.9	0
12.94	0
12.98	0
13.02	0
13.06	0
13.1	0
13.14	0
13.18	0
13.22	0
13.26	0
13.3	0
13.34	0
13.38	0
13.42	0
13.46	0
13.5	0
13.54	0
13.58	0
13.62	0
13.66	0
13.7	0
13.74	0.0873322
13.78	0.0923388
13.82	0.0977884
13.86	0.103735
13.9	0.11024
13.94	0.117377
13.98	0.12523
14.02	0.133897
14.06	0.143496
14.1	0.154164
14.14	0.166067
14.18	0.179402
14.22	0.194409
14.26	0.211379
14.3	0.230669
14.34	0.252723
14.38	0.278092
14.42	0.307477
14.46	0.34177
14.5	0.382126
14.54	0.43006
14.58	0.48759
14.62	0.557454
14.66	0.643433
14.7	0.750874
14.74	0.887528
14.78	1.06497
14.82	1.30109
14.86	1.6247
14.9	2.08446
14.94	2.76774
14.98	3.84331
15.02	5.67232
15.06	9.2068
15.1	17.8271
15.14	41.5354
15.18	83.7122
15.22	70.4423
15.26	31.2189
15.3	14.0023
15.34	7.74391
15.38	4.95281
15.42	3.43164
15.46	2.51135
15.5	1.91461
15.54	1.50663
15.58	1.21582
15.62	1.00143
15.66	0.838938
15.7	0.712903
15.74	0.613206
15.78	0.533005
15.82	0.467539
15.86	0.413413
15.9	0.368155
15.94	0.329932
15.98	0.29736
16.02	0.269378
16.06	0.245163
16.1	0.22407
16.14	0.205584
16.18	0.189293
16.22	0.174863
16.26	0.162021
16.3	0.150542
16.34	0.140241
16.38	0.130962
16.42	0.122573
16.46	0.114965
16.5	0.108044
16.54	0.101729
16.58	0.0959514
16.62	0.0906525
16.66	0.0857805
16.7	0
16.74	0
16.78	0
16.82	0
16.86	0
16.9	0
16.94	0
16.98	0
17.02	0
17.06	0
17.1	0
17.14	0
17.18	0
17.22	0
17.26	0
17.3	0
17.34	0
17.38	0
17.42	0
17.46	0
17.5	0
17.54	0
17.58	0
17.62	0
17.66	0
17.7	0
17.74	0
17.78	0
17.82	0
17.86	0
17.9	0
17.94	0
17.98	0
18.02	0
18.06	0
18.1	0
18.14	0
18.18	1.32087
18.22	1.39747
18.26	1.48093
18.3	1.57209
18.34	1.67193
18.38	1.78159
18.42	1.90239
18.46	2.03591
18.5	2.18398
18.54	2.34879
18.58	2.53298
18.62	2.7397
18.66	2.97276
18.7	3.23685
18.74	3.53772
18.78	3.88253
18.82	4.28023
18.86	4.74224
18.9	5.28315
18.94	5.922
18.98	6.68386
19.02	7.6024
19.06	8.72359
19.1	10.1115
19.14	11.8577
19.18	14.0962
19.22	17.03
19.26	20.9776
19.3	26.4615
19.34	34.3847
19.38	46.4128
19.42	65.8809
19.46	100.386
19.5	172.774
19.54	365.344
19.58	856.683
19.62	1320.11
19.66	773.095
19.7	328.062
19.74	159.514
19.78	94.6077
19.82	62.7693
19.86	44.5469
19.9	33.1834
19.94	25.645
19.98	20.3984
20.02	16.6047
20.06	13.7749
20.1	11.6092
20.14	9.91547
20.18	8.56623
20.22	7.4742
20.26	6.57805
20.3	5.83366
20.34	5.20865
20.38	4.67883
20.42	4.22582
20.46	6.90745
20.5	6.74496
20.54	6.64098
20.58	6.59048
20.62	6.59003
20.66	6.63764
20.7	6.73254
20.74	6.87515
20.78	7.06702
20.82	7.31088
20.86	7.61072
20.9	7.97201
20.94	8.40188
20.98	8.90949
21.02	9.50648
21.06	10.2076
21.1	9.79005
21.14	10.8256
21.18	12.0342
21.22	13.4568
21.26	15.1468
21.3	17.1756
21.34	19.6399
21.38	29.9103
21.42	34.1118
21.46	39.3819
21.5	46.1347
21.54	55.0094
21.58	67.0333
21.62	83.9418
21.66	108.848
21.7	147.773
21.74	213.618
21.78	340.584
21.82	650.428
21.86	1503.48
21.9	2983.95
21.94	2468
21.98	1104.33
22.02	513.189
22.06	299.805
22.1	206.055
22.14	156.719
22.18	128.852
22.22	113.009
22.26	104.723
22.3	101.791
22.34	103.192
22.38	108.639
22.42	118.425
22.46	133.455
22.5	155.473
22.54	187.574
22.58	235.312
22.62	309.156
22.66	430.431
22.7	649.158
22.74	1123.06
22.78	2407.79
22.82	5517.7
22.86	7453.59
22.9	3994.13
22.94	1738.63
22.98	915.926
23.02	601.863
23.06	460.429
23.1	403.458
23.14	408.547
23.18	487.79
23.22	721.186
23.26	1413.79
23.3	3118.67
23.34	4131.11
23.38	2205.44
23.42	971.996
23.46	512.481
23.5	327.195
23.54	232.122
23.58	176.107
23.62	140.384
23.66	116.289
23.7	99.3631
23.74	87.1299
23.78	78.1296
23.82	71.4607
23.86	66.5471
23.9	63.1289
23.94	60.7327
23.98	59.3101
24.02	58.7666
24.06	59.0583
24.1	60.1854
24.14	62.1903
24.18	65.1615
24.22	69.2416
24.26	74.6427
24.3	81.6714
24.34	83.6915
24.38	95.8613
24.42	111.655
24.46	132.506
24.5	160.657
24.54	199.765
24.58	256.102
24.62	341.114
24.66	477.401
24.7	715.09
24.74	1197.22
24.78	2442.79
24.82	5746.73
24.86	10000
24.9	6638.2
24.94	2837.39
24.98	1335.59
25.02	773.811
25.06	508.066
25.1	359.182
25.14	268.298
25.18	210.123
25.22	173.245
25.26	155.929
25.3	168.512
25.34	205.658
25.38	163.046
25.42	103.746
25.46	75.0095
25.5	60.5806
25.54	51.3583
25.58	44.5973
25.62	39.3194
25.66	35.0441
25.7	31.495
25.74	28.4967
25.78	25.93
25.82	23.7096
25.86	21.7721
25.9	20.0692
25.94	18.563
25.98	17.2233
26.02	16.0258
26.06	14.9507
26.1	13.9814
26.14	13.1044
26.18	12.3081
26.22	11.5828
26.26	10.9202
26.3	10.3131
26.34	0.248337
26.38	0.229492
26.42	0.212712
26.46	0.197706
26.5	0.184232
26.54	0.17209
26.58	0.161109
26.62	0.151146
26.66	0.142079
26.7	0.133804
26.74	0.126231
26.78	0.119283
26.82	0.112893
26.86	0
26.9	0
26.94	0
26.98	0
27.02	0
27.06	0
27.1	0
27.14	0
27.18	0
27.22	0
27.26	0
27.3	0
27.34	0
27.38	0
27.42	0
27.46	0
27.5	0
27.54	0
27.58	0
27.62	0
27.66	0
27.7	0
27.74	0
27.78	0
27.82	0
27.86	0
27.9	0
27.94	0
27.98	0
28.02	0
28.06	0
28.1	0
28.14	0
28.18	0
28.22	0
28.26	0
28.3	0
28.34	0
28.38	0
28.42	0
28.46	0
28.5	0
28.54	0
28.58	0
28.62	0
28.66	0
28.7	0
28.74	0
28.78	0
28.82	0.37914
28.86	0.401142
28.9	0.425114
28.94	0.451301
28.98	0.479982
29.02	0.511485
29.06	0.546193
29.1	0.584555
29.14	0.627102
29.18	1.402
29.22	2.72414
29.26	2.90006
29.3	3.09407
29.34	3.30881
29.38	3.54744
29.42	3.81378
29.46	4.11248
29.5	4.44923
29.54	4.83111
29.58	5.267
29.62	5.76824
29.66	6.34943
29.7	7.02983
29.74	7.83525
29.78	8.80114
29.82	9.97753
29.86	11.4373
29.9	13.2906
29.94	15.7121
29.98	18.9942
30.02	23.6613
30.06	30.7389
30.1	42.5237
30.14	65.8516
30.18	125.067
30.22	271.693
30.26	404.352
30.3	250.728
30.34	134.289
30.38	100.094
30.42	101.989
30.46	126.706
30.5	183.989
30.54	323.911
30.58	702.479
30.62	1452.9
30.66	1768.32
30.7	1033.61
30.74	450.394
30.78	229.764
30.82	141.043
30.86	97.1724
30.9	71.9773
30.94	56.2898
30.98	45.9734
31.02	38.9253
31.06	33.9904
31.1	30.4956
31.14	28.0303
31.18	26.336
31.22	25.2472
31.26	24.6583
31.3	24.5054
31.34	24.755
31.38	25.3987
31.42	26.4516
31.46	27.9533
31.5	29.9736
31.54	32.6221
31.58	36.0685
31.62	40.579
31.66	46.5908
31.7	54.8747
31.74	66.6082
31.78	86.476
31.82	127.37
31.86	220.451
31.9	333.018
31.94	280.419
31.98	243.182
32.02	284.24
32.06	400.278
32.1	656.088
32.14	1330.92
32.18	3123.53
32.22	5318.32
32.26	3444.63
32.3	1470.15
32.34	696.644
32.38	405.564
32.42	266.618
32.46	188.132
32.5	139.587
32.54	107.574
32.58	85.3931
32.62	69.4087
32.66	57.5173
32.7	48.4351
32.74	41.3438
32.78	35.7022
32.82	31.1407
32.86	27.4006
32.9	24.2959
32.94	21.6906
32.98	19.483
33.02	17.5961
33.06	15.9707
33.1	14.5607
33.14	13.3295
33.18	12.2482
33.22	11.2934
33.26	10.4461
33.3	9.69074
33.34	9.01448
33.38	8.19213
33.42	7.65494
33.46	7.16888
33.5	6.72766
33.54	6.32594
33.58	5.95914
33.62	5.62332
33.66	5.31511
33.7	0
33.74	0
33.78	0
33.82	0
33.86	0
33.9	0
33.94	0
33.98	0
34.02	0
34.06	0
34.1	0
34.14	0
34.18	0
34.22	0
34.26	0
34.3	4.92174
34.34	5.2064
34.38	5.51648
34.42	5.8551
34.46	6.22586
34.5	6.63296
34.54	7.08132
34.58	7.57669
34.62	8.12589
34.66	8.73699
34.7	9.41965
34.74	10.1855
34.78	11.0486
34.82	12.0261
34.86	13.1392
34.9	14.414
34.94	15.8836
34.98	17.5895
35.02	19.5854
35.06	21.9405
35.1	24.7466
35.14	28.126
35.18	32.3608
35.22	37.4605
35.26	43.8651
35.3	52.0653
35.34	62.7792
35.38	77.1552
35.42	97.0585
35.46	125.696
35.5	168.943
35.54	238.465
35.58	360.396
35.62	610.887
35.66	1266.01
35.7	2981.16
35.74	4954.54
35.78	3120.18
35.82	1328.03
35.86	633.078
35.9	370.232
35.94	243.943
35.98	172.432
36.02	128.172
36.06	99.0013
36.1	78.8305
36.14	64.3531
36.18	53.6587
36.22	45.5895
36.26	39.9182
36.3	35.2207
36.34	31.694
36.38	29.2147
36.42	27.8314
36.46	27.8828
36.5	30.4776
36.54	39.7637
36.58	68.73
36.62	123.59
36.66	110.96
36.7	60.1597
36.74	36.4961
36.78	24.3065
36.82	18.3464
36.86	15.2467
36.9	13.3928
36.94	12.174
36.98	11.3417
37.02	10.7762
37.06	10.416
37.1	10.2312
37.14	10.2123
37.18	10.3655
37.22	6.03897
37.26	6.86571
37.3	7.98053
37.34	9.49997
37.38	11.6166
37.42	14.6631
37.46	19.2489
37.5	26.5838
37.54	39.3825
37.58	65.5992
37.62	133.993
37.66	311.281
37.7	505.703
37.74	315.424
37.78	139.846
37.82	74.6367
37.86	54.0647
37.9	51.9013
37.94	69.8305
37.98	134.581
38.02	260.766
38.06	230.054
38.1	105.965
38.14	49.5826
38.18	28.7106
38.22	19.2289
38.26	16.427
38.3	13.2716
38.34	11.2211
38.38	9.83428
38.42	10.0376
38.46	9.43881
38.5	9.05707
38.54	8.84209
38.58	8.76216
38.62	8.79743
38.66	8.9361
38.7	9.17227
38.74	9.50466
38.78	9.93599
38.82	10.4728
38.86	11.1255
38.9	11.909
38.94	12.8435
38.98	13.9555
39.02	15.2803
39.06	16.8642
39.1	18.7689
39.14	21.0774
39.18	23.4316
39.22	26.9567
39.26	34.239
39.3	40.0523
39.34	47.6015
39.38	57.6626
39.42	71.5021
39.46	91.3024
39.5	120.819
39.54	168.654
39.58	253.21
39.62	432.71
39.66	908.327
39.7	2034.7
39.74	2729.06
39.78	1773.49
39.82	1540.91
39.86	1298.43
39.9	654.304
39.94	331.967
39.98	203.72
40.02	143.372
40.06	109.389
40.1	88.6392
40.14	75.5776
40.18	68.3284
40.22	63.8455
40.26	62.2552
40.3	63.3559
40.34	67.3536
40.38	74.9314
40.42	87.4953
40.46	107.755
40.5	144.608
40.54	202.832
40.58	316.349
40.62	593.628
40.66	1358.55
40.7	2741.88
40.74	2347.62
40.78	1052.73
40.82	479.468
40.86	271.499
40.9	179.395
40.94	129.639
40.98	99.9655
41.02	81.199
41.06	68.9123
41.1	60.7874
41.14	55.5486
41.18	52.4861
41.22	48.8056
41.26	49.3725
41.3	50.6406
41.34	55.2332
41.38	62.8167
41.42	75.0387
41.46	95.3938
41.5	132.765
41.54	217.773
41.58	443.683
41.62	868.056
41.66	810.107
41.7	450.601
41.74	317.786
41.78	333.855
41.82	467.688
41.86	865.709
41.9	1968.17
41.94	3547.46
41.98	2504.49
42.02	1089.62
42.06	516.703
42.1	303.94
42.14	204.592
42.18	146.449
42.22	112.887
42.26	91.2742
42.3	76.8348
42.34	67.0136
42.38	60.363
42.42	56.0355
42.46	53.5356
42.5	52.5946
42.54	53.1121
42.58	55.1405
42.62	58.9228
42.66	65.0902
42.7	75.3157
42.74	92.2967
42.78	110.287
42.82	125.616
42.86	154.779
42.9	205.42
42.94	292.319
42.98	455.661
43.02	833.187
43.06	1878.55
43.1	4117.42
43.14	4390.34
43.18	2085.12
43.22	907.191
43.26	481.375
43.3	301.885
43.34	207.253
43.38	151.012
43.42	111.607
43.46	87.3858
43.5	70.278
43.54	57.7642
43.58	48.346
43.62	41.0886
43.66	35.385
43.7	30.828
43.74	27.1363
43.78	24.1107
43.82	21.6076
43.86	19.5217
43.9	17.7746
43.94	16.3079
43.98	15.0778
44.02	14.052
44.06	13.2078
44.1	12.7107
44.14	12.2044
44.18	11.8619
44.22	11.696
44.26	11.7209
44.3	12.014
44.34	12.6469
44.38	13.7692
44.42	15.651
44.46	18.81
44.5	24.3291
44.54	34.8934
44.58	59.5859
44.62	123.807
44.66	271.662
44.7	290.221
44.74	138.084
44.78	60.2851
44.82	32.1984
44.86	20.4347
44.9	16.91
44.94	13.4789
44.98	11.4471
45.02	10.2068
45.06	9.49802
45.1	9.17252
45.14	10.6004
45.18	10.9579
45.22	11.6347
45.26	13.523
45.3	15.2097
45.34	17.8056
45.38	22.05
45.42	29.8905
45.46	48.2221
45.5	97.5438
45.54	185.62
45.58	160.992
45.62	81.1219
45.66	46.9223
45.7	35.8782
45.74	32.4681
45.78	32.2129
45.82	33.8741
45.86	37.0964
45.9	41.9236
45.94	48.6969
45.98	58.1019
46.02	71.3564
46.06	90.6401
46.1	120.07
46.14	168.114
46.18	255.002
46.22	449.25
46.26	978.461
46.3	2143.81
46.34	2434.69
46.38	1254.28
46.42	641.785
46.46	472.561
46.5	562.519
46.54	1012.25
46.58	1666.89
46.62	1341.84
46.66	1137.04
46.7	940.4
46.74	483.816
46.78	249.651
46.82	153.975
46.86	108.121
46.9	81.5738
46.94	64.5654
46.98	52.985
47.02	44.7696
47.06	38.6174
47.1	34.2105
47.14	30.9717
47.18	28.6588
47.22	27.1354
47.26	26.3468
47.3	26.3151
47.34	27.1539
47.38	29.2169
47.42	32.7619
47.46	38.7826
47.5	49.0597
47.54	67.5194
47.58	105.058
47.62	201.075
47.66	461.428
47.7	848.302
47.74	618.562
47.78	270.901
47.82	125.487
47.86	72.6044
47.9	48.0865
47.94	34.4126
47.98	26.0066
48.02	20.4824
48.06	15.282
48.1	12.6072
48.14	9.8726
48.18	8.4297
48.22	7.3244
48.26	6.48698
48.3	5.8508
48.34	5.37964
48.38	5.05301
48.42	4.86428
48.46	4.82167
48.5	4.95346
48.54	5.32043
48.58	6.04429
48.62	7.37575
48.66	9.88509
48.7	15.243
48.74	29.5177
48.78	67.1424
48.82	110.61
48.86	70.1883
48.9	30.5509
48.94	15.1266
48.98	9.25184
49.02	6.39861
49.06	4.75978
49.1	3.72698
49.14	3.03123
49.18	1.71871
49.22	1.39628
49.26	1.15643
49.3	0.973275
49.34	0.830305
49.38	0.716598
49.42	0.624697
49.46	0.549373
49.5	0.486873
49.54	0.434446
49.58	0.390042
49.62	0.352105
49.66	0.31944
49.7	0.291113
49.74	0.266391
49.78	0.244686
49.82	0.225528
49.86	0.208533
49.9	0.193388
49.94	0.179834
49.98	0.167656
50	0.162025